ACCELEROMETER X (m/s²),ACCELEROMETER Y (m/s²),ACCELEROMETER Z (m/s²),GRAVITY X (m/s²),GRAVITY Y (m/s²),GRAVITY Z (m/s²),LINEAR ACCELERATION X (m/s²),LINEAR ACCELERATION Y (m/s²),LINEAR ACCELERATION Z (m/s²),GYROSCOPE X (°/s),GYROSCOPE Y (°/s),GYROSCOPE Z (°/s),LIGHT (lux),MAGNETIC FIELD X (μT),MAGNETIC FIELD Y (μT),MAGNETIC FIELD Z (μT),ORIENTATION Z (azimuth °),ORIENTATION X (pitch °),ORIENTATION Y (roll °),PROXIMITY (m),SOUND LEVEL (dB),LOCATION Latitude : ,LOCATION Longitude : ,LOCATION Altitude ( m),LOCATION Altitude-google ( m),LOCATION Speed ( Kmh),LOCATION Accuracy ( m),LOCATION ORIENTATION (°),Satellites in range,Time since start in ms ,YYYY-MO-DD HH-MI-SS_SSS
0.569,4.491,8.653,-0.221,4.605,8.656,0.782,-0.186,-0.141,4.9,-23.4,8.7,0.0,-34.5,-26.6,-8.3,120.4,-27.8,2.0,5.0,31.95,12.84534,77.66346,,NaN,,800.0,,0 / 0,7,2017-10-05 18:50:42:944
0.569,4.491,8.653,-0.178,4.611,8.653,0.738,-0.192,-0.139,-4.3,-22.3,3.4,0.0,-34.5,-26.6,-8.3,120.4,-27.8,2.0,5.0,31.95,12.84534,77.66346,,NaN,,800.0,,0 / 0,17,2017-10-05 18:50:42:954
0.569,4.491,8.653,-0.178,4.611,8.653,0.738,-0.192,-0.139,-4.3,-22.3,3.4,0.0,-34.5,-26.6,-8.3,120.4,-27.8,2.0,5.0,31.95,12.84534,77.66346,,NaN,,800.0,,0 / 0,27,2017-10-05 18:50:42:964
0.795,4.266,8.783,-0.12,4.621,8.649,0.902,-0.423,-0.006,-4.3,-22.3,3.4,1.066,-34.6,-26.2,-7.9,120.4,-27.8,2.0,5.0,31.95,12.84534,77.66346,,NaN,,800.0,,0 / 0,37,2017-10-05 18:50:42:974
0.795,4.266,8.783,-0.12,4.621,8.649,0.902,-0.423,-0.006,-9.6,-26.9,-1.6,1.066,-34.6,-26.2,-7.9,120.4,-27.8,2.0,5.0,31.95,12.84534,77.66346,,NaN,,800.0,,0 / 0,47,2017-10-05 18:50:42:984
0.834,4.097,9.224,-0.028,4.606,8.658,0.848,-0.574,0.418,-12.5,-28.6,-6.1,1.066,-34.7,-25.8,-7.6,118.8,-28.0,0.2,5.0,31.95,12.84534,77.66346,,NaN,,800.0,,0 / 0,57,2017-10-05 18:50:42:994
0.834,4.097,9.224,-0.028,4.606,8.658,0.848,-0.574,0.418,-12.5,-28.6,-6.1,1.066,-34.7,-25.8,-7.6,118.8,-28.0,0.2,5.0,31.95,12.84534,77.66346,,NaN,,800.0,,0 / 0,67,2017-10-05 18:50:43:004
0.75,4.034,8.498,0.064,4.562,8.681,0.674,-0.592,-0.32,-13.0,-28.3,-12.6,1.066,-34.8,-25.6,-7.6,118.8,-28.0,0.2,5.0,31.95,12.84534,77.66346,,NaN,,800.0,,0 / 0,77,2017-10-05 18:50:43:014
0.75,4.034,8.498,0.064,4.562,8.681,0.674,-0.592,-0.32,-12.7,-14.6,-14.8,1.066,-34.8,-25.6,-7.6,118.8,-28.0,0.2,5.0,31.95,12.84534,77.66346,,NaN,,800.0,,0 / 0,88,2017-10-05 18:50:43:025
0.444,4.309,8.365,0.132,4.5,8.712,0.305,-0.26,-0.482,-12.7,-14.6,-14.8,1.066,-35.2,-25.5,-7.1,119.3,-27.7,-0.4,5.0,31.95,12.84534,77.66346,,NaN,,800.0,,0 / 0,97,2017-10-05 18:50:43:034
0.299,4.483,8.577,0.172,4.439,8.743,0.122,-0.029,-0.304,-13.2,0.2,-12.8,1.066,-35.3,-25.3,-7.0,119.3,-27.7,-0.4,5.0,31.95,12.84534,77.66346,,NaN,,800.0,,0 / 0,107,2017-10-05 18:50:43:044
0.299,4.483,8.577,0.172,4.439,8.743,0.122,-0.029,-0.304,-14.6,-0.3,-10.0,1.066,-35.3,-25.3,-7.0,119.3,-27.7,-0.4,5.0,31.95,12.84534,77.66346,,NaN,,800.0,,0 / 0,117,2017-10-05 18:50:43:054
0.358,4.443,8.806,0.172,4.439,8.743,0.122,-0.029,-0.107,-14.6,-0.3,-10.0,1.066,-35.4,-25.3,-6.7,118.4,-26.9,-1.1,5.0,31.95,12.84534,77.66346,,NaN,,800.0,,0 / 0,127,2017-10-05 18:50:43:064
0.358,4.443,8.806,0.174,4.382,8.771,0.177,-0.01,-0.107,-14.6,-0.3,-10.0,1.066,-35.4,-25.3,-6.7,118.4,-26.9,-1.1,5.0,31.95,12.84534,77.66346,,NaN,,800.0,,0 / 0,137,2017-10-05 18:50:43:074
0.358,4.443,8.806,0.174,4.382,8.771,0.177,-0.01,-0.107,-18.2,-5.9,-9.7,1.066,-35.4,-25.3,-6.7,118.4,-26.9,-1.1,5.0,31.95,12.84534,77.66346,,NaN,,800.0,,0 / 0,147,2017-10-05 18:50:43:084
0.782,4.163,8.849,0.186,4.332,8.796,0.584,-0.235,-0.089,-20.3,-11.7,-12.5,1.066,-35.8,-25.1,-6.7,118.4,-26.9,-1.1,5.0,31.95,12.84534,77.66346,,NaN,,800.0,,0 / 0,157,2017-10-05 18:50:43:094
0.811,4.081,9.173,0.2,4.302,8.81,0.598,-0.287,0.216,-20.3,-11.7,-12.5,1.066,-35.4,-25.0,-6.8,118.4,-26.9,-1.1,5.0,31.95,12.84534,77.66346,,NaN,,800.0,,0 / 0,168,2017-10-05 18:50:43:105
0.811,4.081,9.173,0.206,4.263,8.829,0.027,0.057,0.61,-16.7,-11.8,-14.6,1.066,-35.6,-25.1,-6.7,118.0,-26.0,-1.3,5.0,31.95,12.84534,77.66346,,NaN,,800.0,,0 / 0,176,2017-10-05 18:50:43:113
0.237,4.391,9.593,0.206,4.263,8.829,0.027,0.057,0.61,-16.7,-11.8,-14.6,1.066,-35.6,-25.1,-6.7,118.0,-26.0,-1.3,5.0,31.95,12.84534,77.66346,,NaN,,800.0,,0 / 0,187,2017-10-05 18:50:43:124
0.026,4.419,9.433,0.208,4.249,8.836,-0.182,0.099,0.445,-10.2,-5.5,-14.8,1.066,-35.6,-25.1,-6.7,118.0,-26.0,-1.3,5.0,31.95,12.84534,77.66346,,NaN,,800.0,,0 / 0,197,2017-10-05 18:50:43:134
0.026,4.419,9.433,0.208,4.249,8.836,-0.182,0.099,0.445,-8.2,0.2,-11.1,1.066,-35.6,-25.1,-6.7,118.0,-26.0,-1.3,5.0,31.95,12.84534,77.66346,,NaN,,800.0,,0 / 0,207,2017-10-05 18:50:43:144
0.118,4.806,9.799,0.229,4.192,8.863,-0.112,0.537,0.779,-8.2,0.2,-11.1,1.066,-35.5,-25.4,-6.5,118.0,-26.0,-1.3,5.0,31.95,12.84534,77.66346,,NaN,,800.0,,0 / 0,218,2017-10-05 18:50:43:155
0.118,4.806,9.799,0.229,4.192,8.863,-0.112,0.537,0.779,-10.9,-1.7,-8.5,1.066,-35.5,-25.4,-6.5,118.0,-26.0,-1.3,5.0,31.95,12.84534,77.66346,,NaN,,800.0,,0 / 0,227,2017-10-05 18:50:43:164
0.458,4.65,9.782,0.228,4.152,8.881,0.222,0.423,0.744,-10.9,-1.7,-8.5,1.066,-35.5,-25.5,-6.4,120.5,-25.3,-1.5,5.0,31.95,12.84534,77.66346,,NaN,,800.0,,0 / 0,237,2017-10-05 18:50:43:174
0.458,4.65,9.782,0.228,4.152,8.881,0.222,0.423,0.744,-12.2,-5.9,-9.8,1.066,-35.5,-25.5,-6.4,120.5,-25.3,-1.5,5.0,31.95,12.84534,77.66346,,NaN,,800.0,,0 / 0,247,2017-10-05 18:50:43:184
0.342,4.425,9.782,0.223,4.112,8.9,0.114,0.242,0.725,-9.1,-1.7,-10.7,1.066,-35.1,-25.7,-6.4,120.5,-25.3,-1.5,5.0,31.95,12.84534,77.66346,,NaN,,800.0,,0 / 0,257,2017-10-05 18:50:43:194
0.342,4.425,9.782,0.223,4.112,8.9,0.114,0.242,0.725,-9.1,-1.7,-10.7,1.066,-35.1,-25.7,-6.4,120.5,-25.3,-1.5,5.0,31.95,12.84534,77.66346,,NaN,,800.0,,0 / 0,267,2017-10-05 18:50:43:204
0.472,4.219,9.381,0.223,4.104,8.904,0.242,0.047,0.327,-4.2,2.7,-14.2,1.066,-34.9,-25.9,-6.5,120.7,-24.8,-1.4,5.0,31.95,12.84534,77.66346,,NaN,,800.0,,0 / 0,277,2017-10-05 18:50:43:214
0.472,4.219,9.381,0.223,4.104,8.904,0.243,0.048,0.327,-4.2,2.7,-14.2,1.066,-34.9,-25.9,-6.5,120.7,-24.8,-1.4,5.0,31.95,12.84534,77.66346,,NaN,,800.0,,0 / 0,287,2017-10-05 18:50:43:224
0.069,4.332,9.464,0.221,4.09,8.911,0.243,0.048,0.327,1.2,5.4,-15.0,1.066,-34.7,-26.1,-6.4,120.7,-24.8,-1.4,5.0,31.95,12.84534,77.66346,,NaN,,800.0,,0 / 0,297,2017-10-05 18:50:43:234
0.069,4.332,9.464,0.204,4.088,8.911,-0.136,0.174,0.401,1.2,5.4,-15.0,1.066,-34.3,-26.5,-6.4,120.7,-24.8,-1.4,5.0,31.95,12.84534,77.66346,,NaN,,800.0,,0 / 0,307,2017-10-05 18:50:43:244
0.069,4.332,9.464,0.204,4.088,8.911,-0.136,0.174,0.401,2.8,8.7,-11.5,1.066,-34.3,-26.5,-6.4,120.7,-24.8,-1.4,5.0,31.95,12.84534,77.66346,,NaN,,800.0,,0 / 0,317,2017-10-05 18:50:43:254
-0.044,4.562,10.011,0.195,4.083,8.914,-0.238,0.406,0.935,2.8,8.7,-11.5,1.066,-34.2,-26.8,-6.2,122.7,-24.6,-1.3,5.0,33.11,12.84534,77.66346,,NaN,,800.0,,0 / 0,327,2017-10-05 18:50:43:264
-0.044,4.562,10.011,0.195,4.083,8.914,-0.238,0.406,0.935,3.9,0.8,-9.2,1.066,-34.2,-26.8,-6.2,122.7,-24.6,-1.3,5.0,33.11,12.84534,77.66346,,NaN,,800.0,,0 / 0,337,2017-10-05 18:50:43:274
0.01,4.248,10.087,0.213,4.097,8.907,-0.204,0.083,1.018,8.2,-7.9,-8.3,1.066,-33.9,-27.0,-6.6,122.7,-24.6,-1.3,5.0,33.11,12.84534,77.66346,,NaN,,800.0,,0 / 0,347,2017-10-05 18:50:43:284
0.01,4.248,10.087,0.213,4.097,8.907,-0.204,0.083,1.018,14.6,-8.8,-8.7,1.066,-33.9,-27.0,-6.6,122.7,-24.6,-1.3,5.0,33.11,12.84534,77.66346,,NaN,,800.0,,0 / 0,357,2017-10-05 18:50:43:294
0.252,4.467,9.682,0.166,4.147,8.885,0.082,0.248,0.641,14.6,-8.8,-8.7,1.066,-33.8,-27.0,-6.5,122.2,-24.7,-1.4,5.0,33.11,12.84534,77.66346,,NaN,,800.0,,0 / 0,367,2017-10-05 18:50:43:304
-0.112,4.571,9.003,0.152,4.189,8.866,-0.263,0.309,-0.007,14.6,-8.8,-8.7,0.0,-33.8,-27.0,-6.5,122.2,-24.7,-1.4,5.0,33.11,12.84534,77.66346,,NaN,,800.0,,0 / 0,377,2017-10-05 18:50:43:314
-0.112,4.571,9.003,0.152,4.189,8.866,-0.263,0.309,-0.007,19.2,-5.3,-8.5,0.0,-33.8,-27.0,-6.5,122.2,-24.7,-1.4,5.0,33.11,12.84534,77.66346,,NaN,,800.0,,0 / 0,387,2017-10-05 18:50:43:324
-0.05,4.74,8.884,0.144,4.197,8.862,-0.194,0.467,-0.121,16.9,-3.6,-7.3,0.0,-33.7,-27.1,-6.5,122.2,-24.7,-1.4,5.0,33.11,12.84534,77.66346,,NaN,,800.0,,0 / 0,397,2017-10-05 18:50:43:334
-0.05,4.74,8.884,0.137,4.207,8.857,-0.187,0.456,-0.116,16.9,-3.6,-7.3,0.0,-33.5,-27.4,-6.5,122.8,-25.3,-0.9,5.0,33.11,12.84534,77.66346,,NaN,,800.0,,0 / 0,407,2017-10-05 18:50:43:344
-0.05,4.74,8.884,0.137,4.207,8.857,-0.187,0.456,-0.116,8.0,-5.7,-6.6,0.0,-33.5,-27.4,-6.5,122.8,-25.3,-0.9,5.0,33.11,12.84534,77.66346,,NaN,,800.0,,0 / 0,417,2017-10-05 18:50:43:354
0.462,4.435,8.702,0.15,4.228,8.847,0.305,0.136,-0.285,8.0,-5.7,-6.6,0.0,-33.5,-27.5,-6.2,122.8,-25.3,-0.9,5.0,33.11,12.84534,77.66346,,NaN,,800.0,,0 / 0,427,2017-10-05 18:50:43:364
0.462,4.435,8.702,0.159,4.228,8.847,0.295,0.135,-0.285,-3.1,-12.5,-9.5,0.0,-33.5,-27.5,-6.2,122.8,-25.3,-0.9,5.0,33.11,12.84534,77.66346,,NaN,,800.0,,0 / 0,437,2017-10-05 18:50:43:374
0.462,4.435,8.702,0.159,4.228,8.847,0.295,0.135,-0.285,-3.1,-12.5,-9.5,0.0,-33.5,-27.5,-6.2,122.8,-25.3,-0.9,5.0,33.11,12.84534,77.66346,,NaN,,800.0,,0 / 0,446,2017-10-05 18:50:43:383
-0.067,4.884,9.263,0.171,4.258,8.832,-0.237,0.548,0.282,-4.6,-13.1,-8.6,0.0,-33.4,-27.5,-6.2,123.2,-25.5,-1.0,5.0,33.11,12.84534,77.66346,,NaN,,800.0,,0 / 0,456,2017-10-05 18:50:43:393
0.031,4.717,9.244,0.178,4.268,8.827,-0.147,0.373,0.268,2.4,-8.3,-5.0,0.0,-33.5,-27.4,-6.2,123.2,-25.5,-1.0,5.0,33.11,12.84534,77.66346,,NaN,,800.0,,0 / 0,466,2017-10-05 18:50:43:403
0.031,4.717,9.244,0.178,4.268,8.827,-0.147,0.373,0.268,6.5,1.9,-2.4,0.0,-33.5,-27.4,-6.2,123.2,-25.5,-1.0,5.0,33.11,12.84534,77.66346,,NaN,,800.0,,0 / 0,477,2017-10-05 18:50:43:414
-0.063,4.66,8.62,0.197,4.297,8.813,-0.259,0.288,-0.332,6.5,1.9,-2.4,0.0,-33.7,-27.6,-6.1,123.2,-25.5,-1.0,5.0,33.11,12.84534,77.66346,,NaN,,800.0,,0 / 0,487,2017-10-05 18:50:43:424
-0.063,4.66,8.62,0.197,4.297,8.813,-0.259,0.288,-0.332,4.8,4.7,-1.5,0.0,-33.7,-27.6,-6.1,123.2,-25.5,-1.0,5.0,33.11,12.84534,77.66346,,NaN,,800.0,,0 / 0,497,2017-10-05 18:50:43:434
0.068,4.562,8.968,0.207,4.32,8.802,-0.14,0.168,0.022,4.8,4.7,-1.5,0.0,-33.8,-27.5,-5.7,123.3,-26.0,-1.3,5.0,33.11,12.84534,77.66346,,NaN,,800.0,,0 / 0,507,2017-10-05 18:50:43:444
0.068,4.562,8.968,0.207,4.32,8.802,-0.14,0.168,0.022,1.8,0.3,-2.3,0.0,-33.8,-27.5,-5.7,123.3,-26.0,-1.3,5.0,33.11,12.84534,77.66346,,NaN,,800.0,,0 / 0,517,2017-10-05 18:50:43:454
0.148,4.485,9.256,0.203,4.328,8.798,-0.057,0.085,0.31,-0.6,-3.0,-2.4,0.0,-33.8,-27.6,-5.6,123.3,-26.0,-1.3,5.0,33.11,12.84534,77.66346,,NaN,,800.0,,0 / 0,527,2017-10-05 18:50:43:464
0.148,4.485,9.256,0.203,4.328,8.798,-0.057,0.085,0.31,-0.6,-3.0,-2.4,1.066,-33.8,-27.6,-5.6,123.3,-26.0,-1.3,5.0,33.11,12.84534,77.66346,,NaN,,800.0,,0 / 0,537,2017-10-05 18:50:43:474
0.025,4.777,9.536,0.19,4.339,8.793,-0.165,0.362,0.59,-0.6,-3.0,-2.4,1.066,-33.9,-27.8,-5.5,123.2,-26.2,-1.3,5.0,33.11,12.84534,77.66346,,NaN,,800.0,,0 / 0,547,2017-10-05 18:50:43:484
0.025,4.777,9.536,0.19,4.339,8.793,-0.165,0.362,0.59,-0.8,-0.5,-2.7,1.066,-33.9,-27.8,-5.5,123.2,-26.2,-1.3,5.0,33.11,12.84534,77.66346,,NaN,,800.0,,0 / 0,557,2017-10-05 18:50:43:494
0.037,4.597,9.733,0.188,4.343,8.791,-0.151,0.181,0.786,2.8,0.2,-2.9,1.066,-34.2,-27.6,-5.5,123.2,-26.2,-1.3,5.0,33.11,12.84534,77.66346,,NaN,,800.0,,0 / 0,567,2017-10-05 18:50:43:504
0.037,4.597,9.733,0.188,4.343,8.791,-0.151,0.181,0.786,2.8,0.2,-2.9,1.066,-34.2,-27.6,-5.5,123.2,-26.2,-1.3,5.0,33.11,12.84534,77.66346,,NaN,,800.0,,0 / 0,577,2017-10-05 18:50:43:514
0.178,4.584,9.69,0.176,4.356,8.784,0.0,0.155,0.75,7.4,3.5,-3.9,1.066,-34.2,-27.5,-5.5,122.1,-26.3,-1.2,5.0,33.11,12.84534,77.66346,,NaN,,800.0,,0 / 0,587,2017-10-05 18:50:43:524
0.178,4.584,9.69,0.176,4.356,8.784,0.0,0.155,0.75,7.4,3.5,-3.9,1.066,-34.2,-27.5,-5.5,122.1,-26.3,-1.2,5.0,33.11,12.84534,77.66346,,NaN,,800.0,,0 / 0,597,2017-10-05 18:50:43:534
0.051,4.627,9.531,0.162,4.377,8.774,-0.112,0.176,0.604,10.1,3.6,-2.9,1.066,-34.0,-27.8,-5.3,122.1,-26.3,-1.2,5.0,33.11,12.84534,77.66346,,NaN,,800.0,,0 / 0,607,2017-10-05 18:50:43:544
0.051,4.627,9.531,0.162,4.377,8.774,-0.112,0.176,0.604,9.1,2.9,-2.6,1.066,-34.0,-27.8,-5.3,122.1,-26.3,-1.2,5.0,33.11,12.84534,77.66346,,NaN,,800.0,,0 / 0,617,2017-10-05 18:50:43:554
0.163,4.534,9.225,0.145,4.4,8.763,0.015,0.061,0.314,9.1,2.9,-2.6,1.066,-33.7,-27.8,-5.3,123.6,-26.5,-1.1,5.0,33.11,12.84534,77.66346,,NaN,,800.0,,0 / 0,627,2017-10-05 18:50:43:564
0.163,4.534,9.225,0.145,4.4,8.763,0.015,0.061,0.314,5.5,1.1,-1.1,1.066,-33.7,-27.8,-5.3,123.6,-26.5,-1.1,5.0,33.11,12.84534,77.66346,,NaN,,800.0,,0 / 0,638,2017-10-05 18:50:43:575
-0.037,4.662,9.322,0.149,4.406,8.76,-0.185,0.181,0.412,3.3,-4.8,-0.6,1.066,-33.7,-27.8,-5.2,123.6,-26.5,-1.1,5.0,29.86,12.84534,77.66346,,NaN,,800.0,,0 / 0,647,2017-10-05 18:50:43:584
-0.037,4.662,9.322,0.149,4.406,8.76,-0.185,0.181,0.412,3.3,-4.8,-0.6,1.066,-33.7,-27.8,-5.2,123.6,-26.5,-1.1,5.0,29.86,12.84534,77.66346,,NaN,,800.0,,0 / 0,658,2017-10-05 18:50:43:595
-0.085,4.729,9.3,0.159,4.423,8.751,-0.243,0.23,0.4,3.8,-11.5,-0.8,1.066,-33.7,-28.0,-5.2,123.6,-26.7,-1.0,5.0,29.86,12.84534,77.66346,,NaN,,800.0,,0 / 0,667,2017-10-05 18:50:43:604
-0.085,4.729,9.3,0.159,4.423,8.751,-0.243,0.23,0.4,3.8,-11.5,-0.8,1.066,-33.7,-28.0,-5.2,123.6,-26.7,-1.0,5.0,29.86,12.84534,77.66346,,NaN,,800.0,,0 / 0,677,2017-10-05 18:50:43:614
0.108,4.588,9.361,0.195,4.431,8.746,-0.089,0.083,0.464,3.2,-21.8,-2.9,1.066,-33.5,-28.0,-5.5,123.6,-26.7,-1.0,5.0,29.86,12.84534,77.66346,,NaN,,800.0,,0 / 0,687,2017-10-05 18:50:43:624
0.108,4.588,9.361,0.195,4.431,8.746,-0.089,0.083,0.464,3.2,-21.8,-2.9,1.066,-33.5,-28.0,-5.5,123.6,-26.7,-1.0,5.0,29.86,12.84534,77.66346,,NaN,,800.0,,0 / 0,697,2017-10-05 18:50:43:634
0.112,4.814,9.365,0.261,4.435,8.743,-0.151,0.302,0.471,1.5,-26.5,-5.6,1.066,-33.5,-28.0,-5.3,123.4,-26.9,-1.3,5.0,29.86,12.84534,77.66346,,NaN,,800.0,,0 / 0,707,2017-10-05 18:50:43:644
0.112,4.814,9.365,0.261,4.435,8.743,-0.151,0.302,0.471,1.5,-26.5,-5.6,1.066,-33.5,-28.0,-5.3,123.4,-26.9,-1.3,5.0,29.86,12.84534,77.66346,,NaN,,800.0,,0 / 0,717,2017-10-05 18:50:43:654
0.335,4.833,9.47,0.302,4.447,8.735,0.027,0.308,0.583,2.8,-26.1,-7.1,1.066,-33.3,-28.1,-5.2,123.4,-26.9,-1.3,5.0,29.86,12.84534,77.66346,,NaN,,800.0,,0 / 0,726,2017-10-05 18:50:43:663
0.434,4.789,9.228,0.324,4.457,8.729,0.104,0.255,0.351,5.7,-20.3,-7.1,1.066,-33.3,-28.1,-5.2,123.4,-26.9,-1.3,5.0,29.86,12.84534,77.66346,,NaN,,800.0,,0 / 0,737,2017-10-05 18:50:43:674
0.434,4.789,9.228,0.324,4.457,8.729,0.104,0.255,0.351,4.7,-10.0,-3.7,1.066,-33.3,-28.1,-5.2,123.4,-26.9,-1.3,5.0,29.86,12.84534,77.66346,,NaN,,800.0,,0 / 0,748,2017-10-05 18:50:43:685
0.538,4.813,8.94,0.354,4.467,8.723,0.176,0.268,0.074,4.7,-10.0,-3.7,1.066,-33.5,-28.4,-5.2,123.2,-27.0,-2.1,5.0,29.86,12.84534,77.66346,,NaN,,800.0,,0 / 0,757,2017-10-05 18:50:43:694
0.538,4.813,8.94,0.354,4.467,8.723,0.176,0.268,0.074,4.7,-10.0,-3.7,1.066,-33.5,-28.4,-5.2,123.2,-27.0,-2.1,5.0,29.86,12.84534,77.66346,,NaN,,800.0,,0 / 0,767,2017-10-05 18:50:43:704
0.523,4.857,9.043,0.379,4.482,8.714,0.135,0.297,0.184,2.6,-0.3,1.4,1.066,-33.7,-28.4,-5.1,123.2,-27.0,-2.1,5.0,29.86,12.84534,77.66346,,NaN,,800.0,,0 / 0,777,2017-10-05 18:50:43:714
0.523,4.857,9.043,0.379,4.482,8.714,0.135,0.297,0.184,2.3,6.0,5.4,1.066,-33.7,-28.4,-5.1,123.2,-27.0,-2.1,5.0,29.86,12.84534,77.66346,,NaN,,800.0,,0 / 0,787,2017-10-05 18:50:43:724
0.512,4.815,9.14,0.367,4.492,8.709,0.136,0.245,0.284,2.3,6.0,5.4,1.066,-33.8,-28.4,-4.9,123.2,-27.0,-2.1,5.0,29.86,12.84534,77.66346,,NaN,,800.0,,0 / 0,797,2017-10-05 18:50:43:734
0.512,4.815,9.14,0.371,4.5,8.705,0.132,0.238,0.288,3.6,10.4,7.8,1.066,-33.7,-28.4,-4.9,123.0,-27.3,-2.4,5.0,29.86,12.84534,77.66346,,NaN,,800.0,,0 / 0,807,2017-10-05 18:50:43:744
0.512,4.815,9.14,0.371,4.5,8.705,0.132,0.238,0.288,6.3,10.8,7.3,1.066,-33.7,-28.4,-4.9,123.0,-27.3,-2.4,5.0,29.86,12.84534,77.66346,,NaN,,800.0,,0 / 0,817,2017-10-05 18:50:43:754
0.476,4.865,9.154,0.355,4.525,8.693,0.113,0.262,0.314,6.3,10.8,7.3,1.066,-33.7,-28.4,-4.9,123.0,-27.3,-2.4,5.0,29.86,12.84534,77.66346,,NaN,,800.0,,0 / 0,827,2017-10-05 18:50:43:764
0.476,4.865,9.154,0.355,4.525,8.693,0.113,0.262,0.314,6.3,10.8,7.3,1.066,-33.7,-28.4,-4.9,123.0,-27.3,-2.4,5.0,29.86,12.84534,77.66346,,NaN,,800.0,,0 / 0,837,2017-10-05 18:50:43:774
-0.014,4.884,8.958,0.337,4.543,8.685,-0.351,0.263,0.13,5.2,9.3,4.3,1.066,-33.7,-28.4,-4.3,123.5,-27.5,-2.3,5.0,29.86,12.84534,77.66346,,NaN,,800.0,,0 / 0,847,2017-10-05 18:50:43:784
-0.014,4.884,8.958,0.328,4.552,8.68,-0.342,0.254,0.134,5.2,9.3,4.3,1.066,-33.7,-28.4,-4.3,123.5,-27.5,-2.3,5.0,29.86,12.84534,77.66346,,NaN,,800.0,,0 / 0,857,2017-10-05 18:50:43:794
-0.014,4.884,8.958,0.328,4.552,8.68,-0.342,0.254,0.134,5.2,9.3,4.3,1.066,-33.7,-28.4,-4.3,123.5,-27.5,-2.3,5.0,29.86,12.84534,77.66346,,NaN,,800.0,,0 / 0,867,2017-10-05 18:50:43:804
0.154,4.703,8.982,0.324,4.559,8.677,-0.172,0.068,0.161,1.0,4.1,2.9,1.066,-33.8,-28.4,-4.1,123.5,-27.5,-2.3,5.0,29.86,12.84534,77.66346,,NaN,,800.0,,0 / 0,877,2017-10-05 18:50:43:814
0.154,4.703,8.982,0.324,4.559,8.677,-0.172,0.068,0.161,1.0,4.1,2.9,1.066,-33.8,-28.4,-4.1,123.5,-27.5,-2.3,5.0,29.86,12.84534,77.66346,,NaN,,800.0,,0 / 0,887,2017-10-05 18:50:43:824
0.208,4.745,9.214,0.331,4.558,8.677,-0.126,0.11,0.389,-1.4,-2.2,2.1,0.0,-33.8,-28.4,-3.9,123.4,-27.7,-2.1,5.0,29.86,12.84534,77.66346,,NaN,,800.0,,0 / 0,897,2017-10-05 18:50:43:834
0.361,4.78,9.523,0.315,4.577,8.667,0.041,0.127,0.702,1.0,-2.2,2.0,0.0,-33.6,-28.3,-3.9,123.4,-27.7,-2.1,5.0,29.86,12.84534,77.66346,,NaN,,800.0,,0 / 0,907,2017-10-05 18:50:43:844
0.361,4.78,9.523,0.315,4.577,8.667,0.041,0.127,0.702,1.0,-2.2,2.0,0.0,-33.6,-28.3,-3.9,123.4,-27.7,-2.1,5.0,29.86,12.84534,77.66346,,NaN,,800.0,,0 / 0,917,2017-10-05 18:50:43:854
0.431,4.816,9.335,0.312,4.581,8.665,0.112,0.157,0.52,4.2,1.3,2.1,0.0,-33.9,-27.8,-3.8,123.4,-27.8,-2.1,5.0,29.86,12.84534,77.66346,,NaN,,800.0,,0 / 0,927,2017-10-05 18:50:43:864
0.431,4.816,9.335,0.312,4.581,8.665,0.112,0.157,0.52,6.1,3.3,1.9,0.0,-33.9,-27.8,-3.8,123.4,-27.8,-2.1,5.0,29.86,12.84534,77.66346,,NaN,,800.0,,0 / 0,937,2017-10-05 18:50:43:874
0.407,4.823,9.005,0.301,4.591,8.66,0.1,0.155,0.2,3.4,3.8,2.0,0.0,-34.0,-27.7,-3.9,123.4,-27.8,-2.1,5.0,29.86,12.84534,77.66346,,NaN,,800.0,,0 / 0,947,2017-10-05 18:50:43:884
0.407,4.823,9.005,0.301,4.591,8.66,0.1,0.155,0.2,3.4,3.8,2.0,0.0,-34.0,-27.7,-3.9,123.4,-27.8,-2.1,5.0,29.86,12.84534,77.66346,,NaN,,800.0,,0 / 0,957,2017-10-05 18:50:43:894
0.399,4.778,9.049,0.299,4.593,8.659,0.094,0.108,0.244,3.4,3.8,2.0,0.0,-34.1,-27.4,-3.8,122.3,-27.9,-2.0,5.0,29.86,12.84534,77.66346,,NaN,,800.0,,0 / 0,968,2017-10-05 18:50:43:905
0.399,4.778,9.049,0.299,4.593,8.659,0.094,0.108,0.244,-0.1,3.4,0.8,0.0,-34.1,-27.4,-3.8,122.3,-27.9,-2.0,5.0,29.86,12.84534,77.66346,,NaN,,800.0,,0 / 0,977,2017-10-05 18:50:43:914
0.214,4.859,9.067,0.291,4.595,8.659,-0.081,0.187,0.262,-1.6,4.9,1.0,0.0,-34.3,-27.4,-3.8,122.3,-27.9,-2.0,5.0,30.81,12.84534,77.66346,,NaN,,800.0,,0 / 0,987,2017-10-05 18:50:43:924
0.214,4.859,9.067,0.291,4.595,8.659,-0.081,0.187,0.262,-1.6,4.9,1.0,0.0,-34.3,-27.4,-3.8,122.3,-27.9,-2.0,5.0,30.81,12.84534,77.66346,,NaN,,800.0,,0 / 0,998,2017-10-05 18:50:43:935
0.111,4.762,9.161,0.281,4.591,8.661,-0.171,0.095,0.353,-1.8,5.2,0.6,0.0,-34.3,-27.4,-4.2,122.4,-27.9,-1.9,5.0,30.81,12.84534,77.66346,,NaN,,800.0,,0 / 0,1007,2017-10-05 18:50:43:944
0.111,4.762,9.161,0.281,4.591,8.661,-0.171,0.095,0.353,-2.6,4.6,0.3,0.0,-34.3,-27.4,-4.2,122.4,-27.9,-1.9,5.0,30.81,12.84534,77.66346,,NaN,,800.0,,0 / 0,1016,2017-10-05 18:50:43:953
0.203,4.863,9.039,0.273,4.585,8.665,-0.073,0.2,0.23,-2.6,4.6,0.3,0.0,-34.1,-27.5,-4.2,122.4,-27.9,-1.9,5.0,30.81,12.84534,77.66346,,NaN,,800.0,,0 / 0,1028,2017-10-05 18:50:43:965
0.203,4.863,9.039,0.273,4.585,8.665,-0.073,0.2,0.23,-2.6,4.6,0.3,0.0,-34.1,-27.5,-4.2,122.4,-27.9,-1.9,5.0,30.81,12.84534,77.66346,,NaN,,800.0,,0 / 0,1037,2017-10-05 18:50:43:974
0.391,4.813,9.115,0.259,4.574,8.671,0.126,0.161,0.298,-3.4,3.4,-0.5,0.0,-34.3,-27.4,-4.1,122.4,-27.9,-1.8,5.0,30.81,12.84534,77.66346,,NaN,,800.0,,0 / 0,1047,2017-10-05 18:50:43:984
0.391,4.813,9.115,0.259,4.574,8.671,0.126,0.161,0.298,-3.2,3.6,-1.0,0.0,-34.3,-27.4,-4.1,122.4,-27.9,-1.8,5.0,30.81,12.84534,77.66346,,NaN,,800.0,,0 / 0,1057,2017-10-05 18:50:43:994
0.216,4.834,9.048,0.237,4.564,8.677,-0.024,0.193,0.226,-1.8,5.2,-2.1,0.0,-34.3,-27.3,-4.0,122.4,-27.9,-1.8,5.0,30.81,12.84534,77.66346,,NaN,,800.0,,0 / 0,1067,2017-10-05 18:50:44:004
0.216,4.834,9.048,0.237,4.564,8.677,-0.024,0.193,0.226,-1.8,5.2,-2.1,0.0,-34.3,-27.3,-4.0,122.4,-27.9,-1.8,5.0,30.81,12.84534,77.66346,,NaN,,800.0,,0 / 0,1077,2017-10-05 18:50:44:014
0.295,4.843,9.237,0.225,4.558,8.68,0.065,0.207,0.408,-0.3,5.9,-1.8,0.0,-34.1,-27.5,-4.1,122.5,-27.7,-1.6,5.0,30.81,12.84534,77.66346,,NaN,,800.0,,0 / 0,1087,2017-10-05 18:50:44:024
0.295,4.843,9.237,0.225,4.558,8.68,0.065,0.207,0.408,1.0,3.1,-2.2,0.0,-34.1,-27.5,-4.1,122.5,-27.7,-1.6,5.0,30.81,12.84534,77.66346,,NaN,,800.0,,0 / 0,1099,2017-10-05 18:50:44:036
0.239,4.825,9.224,0.211,4.559,8.68,0.024,0.188,0.395,1.0,3.1,-2.2,0.0,-34.0,-27.8,-4.0,122.5,-27.7,-1.6,5.0,30.81,12.84534,77.66346,,NaN,,800.0,,0 / 0,1107,2017-10-05 18:50:44:044
0.239,4.825,9.224,0.211,4.559,8.68,0.024,0.188,0.395,1.0,3.1,-2.2,0.0,-34.0,-27.8,-4.0,122.5,-27.7,-1.6,5.0,30.81,12.84534,77.66346,,NaN,,800.0,,0 / 0,1117,2017-10-05 18:50:44:054
0.311,4.821,9.062,0.202,4.563,8.678,0.104,0.181,0.239,0.4,0.9,-3.1,0.0,-34.0,-28.0,-3.9,123.6,-27.7,-1.4,5.0,30.81,12.84534,77.66346,,NaN,,800.0,,0 / 0,1127,2017-10-05 18:50:44:064
0.311,4.821,9.062,0.202,4.563,8.678,0.104,0.181,0.239,-2.1,-0.3,-4.3,0.0,-34.0,-28.0,-3.9,123.6,-27.7,-1.4,5.0,30.81,12.84534,77.66346,,NaN,,800.0,,0 / 0,1137,2017-10-05 18:50:44:074
0.167,4.795,8.94,0.193,4.555,8.682,-0.028,0.162,0.114,-2.1,-0.3,-4.3,0.0,-34.0,-28.0,-3.7,123.6,-27.7,-1.4,5.0,30.81,12.84534,77.66346,,NaN,,800.0,,0 / 0,1147,2017-10-05 18:50:44:084
0.167,4.795,8.94,0.193,4.555,8.682,-0.028,0.162,0.114,-4.4,-0.8,-4.5,0.0,-34.0,-28.0,-3.7,123.6,-27.7,-1.4,5.0,30.81,12.84534,77.66346,,NaN,,800.0,,0 / 0,1157,2017-10-05 18:50:44:094
0.06,4.892,9.131,0.186,4.548,8.686,-0.127,0.265,0.299,-4.4,-0.8,-4.5,0.0,-34.0,-28.1,-3.7,123.7,-27.7,-1.3,5.0,30.81,12.84534,77.66346,,NaN,,800.0,,0 / 0,1167,2017-10-05 18:50:44:104
0.06,4.892,9.131,0.186,4.548,8.686,-0.127,0.265,0.299,-5.7,2.8,-2.4,0.0,-34.0,-28.1,-3.7,123.7,-27.7,-1.3,5.0,30.81,12.84534,77.66346,,NaN,,800.0,,0 / 0,1177,2017-10-05 18:50:44:114
0.06,4.892,9.131,0.186,4.548,8.686,-0.127,0.265,0.299,-5.7,2.8,-2.4,0.0,-34.0,-28.1,-3.7,123.7,-27.7,-1.3,5.0,30.81,12.84534,77.66346,,NaN,,800.0,,0 / 0,1187,2017-10-05 18:50:44:124
0.075,4.814,9.281,0.177,4.535,8.693,-0.103,0.201,0.439,-4.4,4.2,-0.3,0.0,-33.8,-28.1,-3.8,123.7,-27.7,-1.3,5.0,30.81,12.84534,77.66346,,NaN,,800.0,,0 / 0,1197,2017-10-05 18:50:44:134
-0.045,4.715,9.301,0.165,4.529,8.697,-0.21,0.11,0.455,-2.6,3.4,0.1,0.0,-33.8,-28.3,-4.0,123.7,-27.5,-1.2,5.0,30.81,12.84534,77.66346,,NaN,,800.0,,0 / 0,1207,2017-10-05 18:50:44:144
-0.045,4.715,9.301,0.165,4.529,8.697,-0.21,0.11,0.455,-2.6,3.4,0.1,0.0,-33.8,-28.3,-4.0,123.7,-27.5,-1.2,5.0,30.81,12.84534,77.66346,,NaN,,800.0,,0 / 0,1217,2017-10-05 18:50:44:154
0.417,4.828,9.456,0.158,4.524,8.699,0.253,0.227,0.604,0.1,-2.6,-1.3,1.066,-33.7,-28.6,-4.4,123.7,-27.5,-1.2,5.0,30.81,12.84534,77.66346,,NaN,,800.0,,0 / 0,1227,2017-10-05 18:50:44:164
0.417,4.828,9.456,0.158,4.524,8.699,0.253,0.227,0.604,1.1,-4.6,-3.5,1.066,-33.7,-28.6,-4.4,123.7,-27.5,-1.2,5.0,30.81,12.84534,77.66346,,NaN,,800.0,,0 / 0,1237,2017-10-05 18:50:44:174
0.28,4.899,9.237,0.162,4.526,8.698,0.113,0.294,0.39,1.1,-4.6,-3.5,1.066,-33.8,-28.6,-4.2,124.8,-27.5,-1.0,5.0,30.81,12.84534,77.66346,,NaN,,800.0,,0 / 0,1248,2017-10-05 18:50:44:185
0.28,4.899,9.237,0.162,4.526,8.698,0.113,0.294,0.39,2.1,-2.2,-5.1,1.066,-33.8,-28.6,-4.2,124.8,-27.5,-1.0,5.0,30.81,12.84534,77.66346,,NaN,,800.0,,0 / 0,1257,2017-10-05 18:50:44:194
0.28,4.899,9.237,0.162,4.53,8.696,-0.091,0.282,0.418,2.1,-2.2,-5.1,1.066,-33.9,-28.6,-4.3,124.8,-27.5,-1.0,5.0,30.81,12.84534,77.66346,,NaN,,800.0,,0 / 0,1267,2017-10-05 18:50:44:204
0.072,4.89,9.263,0.162,4.53,8.696,-0.091,0.282,0.418,3.3,3.0,-4.6,1.066,-33.9,-28.6,-4.3,124.8,-27.5,-1.0,5.0,30.81,12.84534,77.66346,,NaN,,800.0,,0 / 0,1277,2017-10-05 18:50:44:214
0.072,4.89,9.263,0.162,4.53,8.696,-0.091,0.282,0.418,3.3,3.0,-4.6,1.066,-33.9,-28.6,-4.3,124.8,-27.5,-1.0,5.0,30.81,12.84534,77.66346,,NaN,,800.0,,0 / 0,1287,2017-10-05 18:50:44:224
0.147,4.82,9.149,0.158,4.535,8.694,-0.013,0.208,0.309,1.8,8.8,-1.3,1.066,-34.1,-28.4,-4.4,123.8,-27.5,-1.1,5.0,30.81,12.84534,77.66346,,NaN,,800.0,,0 / 0,1297,2017-10-05 18:50:44:234
0.147,4.82,9.149,0.158,4.535,8.694,-0.013,0.208,0.309,1.8,8.8,-1.3,1.066,-34.1,-28.4,-4.4,123.8,-27.5,-1.1,5.0,30.81,12.84534,77.66346,,NaN,,800.0,,0 / 0,1307,2017-10-05 18:50:44:244
0.146,4.906,9.271,0.135,4.543,8.69,0.009,0.284,0.433,1.0,9.1,2.4,1.066,-34.1,-28.4,-4.4,123.8,-27.5,-1.1,5.0,31.32,12.84534,77.66346,,NaN,,800.0,,0 / 0,1317,2017-10-05 18:50:44:254
-0.073,5.085,9.397,0.11,4.554,8.684,-0.182,0.45,0.562,2.0,11.2,5.7,1.066,-34.4,-28.2,-4.3,123.8,-27.6,-0.9,5.0,31.32,12.84534,77.66346,,NaN,,800.0,,0 / 0,1327,2017-10-05 18:50:44:264
-0.073,5.085,9.397,0.11,4.554,8.684,-0.182,0.45,0.562,5.9,16.9,8.3,1.066,-34.4,-28.2,-4.3,123.8,-27.6,-0.9,5.0,31.32,12.84534,77.66346,,NaN,,800.0,,0 / 0,1336,2017-10-05 18:50:44:273
-0.001,5.064,9.733,0.078,4.566,8.678,-0.079,0.416,0.898,5.9,16.9,8.3,1.066,-34.4,-28.1,-4.4,123.8,-27.6,-0.9,5.0,31.32,12.84534,77.66346,,NaN,,800.0,,0 / 0,1350,2017-10-05 18:50:44:287
-0.001,5.064,9.733,0.078,4.566,8.678,-0.079,0.416,0.898,5.9,16.9,8.3,1.066,-34.4,-28.1,-4.4,123.8,-27.6,-0.9,5.0,31.32,12.84534,77.66346,,NaN,,800.0,,0 / 0,1357,2017-10-05 18:50:44:294
-0.001,5.064,9.733,0.078,4.566,8.678,-0.079,0.416,0.898,13.5,17.9,8.7,1.066,-34.4,-28.1,-4.4,123.8,-27.6,-0.9,5.0,31.32,12.84534,77.66346,,NaN,,800.0,,0 / 0,1367,2017-10-05 18:50:44:304
0.145,5.073,9.617,0.041,4.622,8.649,0.102,0.37,0.814,22.2,17.1,10.4,1.066,-34.4,-28.1,-4.4,123.8,-27.8,-0.5,5.0,31.32,12.84534,77.66346,,NaN,,800.0,,0 / 0,1377,2017-10-05 18:50:44:314
-0.41,5.083,9.054,0.008,4.672,8.622,-0.412,0.329,0.286,22.2,17.1,10.4,1.066,-34.2,-27.9,-4.4,123.8,-27.8,-0.5,5.0,31.32,12.84534,77.66346,,NaN,,800.0,,0 / 0,1387,2017-10-05 18:50:44:324
-0.41,5.083,9.054,0.008,4.672,8.622,-0.412,0.329,0.286,28.7,14.9,14.1,0.0,-34.2,-27.9,-4.4,123.8,-27.8,-0.5,5.0,31.32,12.84534,77.66346,,NaN,,800.0,,0 / 0,1398,2017-10-05 18:50:44:335
-0.132,4.906,9.477,-0.006,4.754,8.577,-0.123,0.073,0.748,34.1,6.2,14.1,0.0,-34.4,-27.8,-4.7,123.2,-28.5,-0.1,5.0,31.32,12.84534,77.66346,,NaN,,800.0,,0 / 0,1407,2017-10-05 18:50:44:344
-0.132,4.906,9.477,-0.001,4.804,8.549,-0.128,0.023,0.776,34.1,6.2,14.1,0.0,-34.4,-27.8,-4.7,123.2,-28.5,-0.1,5.0,31.32,12.84534,77.66346,,NaN,,800.0,,0 / 0,1417,2017-10-05 18:50:44:354
-0.132,4.906,9.477,-0.001,4.804,8.549,-0.128,0.023,0.776,34.1,6.2,14.1,0.0,-34.4,-27.8,-4.7,123.2,-28.5,-0.1,5.0,31.32,12.84534,77.66346,,NaN,,800.0,,0 / 0,1427,2017-10-05 18:50:44:364
-0.132,4.906,9.477,-0.001,4.804,8.549,-0.128,0.023,0.776,38.5,-11.8,10.6,0.0,-34.4,-27.8,-4.7,123.2,-28.5,-0.1,5.0,31.32,12.84534,77.66346,,NaN,,800.0,,0 / 0,1437,2017-10-05 18:50:44:374
-1.106,5.097,8.348,0.056,4.868,8.513,-1.145,0.147,-0.299,14.2,-49.0,-1.2,0.0,-34.4,-27.8,-4.7,122.9,-29.3,0.0,5.0,31.32,12.84534,77.66346,,NaN,,800.0,,0 / 0,1447,2017-10-05 18:50:44:384
-1.106,5.097,8.348,0.056,4.868,8.513,-1.145,0.147,-0.299,14.2,-49.0,-1.2,0.0,-34.4,-27.8,-4.7,122.9,-29.3,0.0,5.0,31.32,12.84534,77.66346,,NaN,,800.0,,0 / 0,1457,2017-10-05 18:50:44:394
-1.726,5.231,9.069,0.224,4.886,8.5,-1.922,0.261,0.424,-4.2,-75.8,-4.8,0.0,-34.2,-27.9,-4.9,122.9,-29.3,0.0,5.0,31.32,12.84534,77.66346,,NaN,,800.0,,0 / 0,1467,2017-10-05 18:50:44:404
-1.775,4.513,9.164,0.383,4.948,8.458,-2.129,-0.508,0.559,5.0,-100.3,-15.0,0.0,-34.4,-27.9,-5.0,122.2,-29.9,-1.5,5.0,31.32,12.84534,77.66346,,NaN,,800.0,,0 / 0,1477,2017-10-05 18:50:44:414
-1.775,4.513,9.164,0.383,4.948,8.458,-2.129,-0.508,0.559,21.1,-88.8,-29.3,0.0,-34.4,-27.9,-5.0,122.2,-29.9,-1.5,5.0,31.32,12.84534,77.66346,,NaN,,800.0,,0 / 0,1487,2017-10-05 18:50:44:424
-0.147,5.079,9.019,0.569,4.974,8.432,-0.714,0.024,0.442,21.1,-88.8,-29.3,0.0,-34.3,-27.8,-4.9,122.2,-29.9,-1.5,5.0,31.32,12.84534,77.66346,,NaN,,800.0,,0 / 0,1497,2017-10-05 18:50:44:434
2.275,5.199,8.311,0.57,4.968,8.436,1.668,0.147,-0.258,-3.2,-20.5,-2.9,0.0,-34.6,-27.7,-4.4,122.2,-29.9,-1.5,5.0,31.32,12.84534,77.66346,,NaN,,800.0,,0 / 0,1507,2017-10-05 18:50:44:444
2.275,5.199,8.311,0.57,4.968,8.436,1.668,0.147,-0.258,-3.2,-20.5,-2.9,0.0,-34.6,-27.7,-4.4,122.2,-29.9,-1.5,5.0,31.32,12.84534,77.66346,,NaN,,800.0,,0 / 0,1517,2017-10-05 18:50:44:454
2.275,5.199,8.311,0.572,4.963,8.439,1.667,0.153,-0.261,-3.2,-20.5,-2.9,0.0,-34.6,-27.7,-4.4,121.1,-30.4,-3.9,5.0,31.32,12.84534,77.66346,,NaN,,800.0,,0 / 0,1527,2017-10-05 18:50:44:464
0.722,5.221,9.393,0.506,4.973,8.437,0.205,0.164,0.806,-12.7,21.4,-0.6,0.0,-34.7,-27.9,-4.0,121.1,-30.4,-3.9,5.0,31.32,12.84534,77.66346,,NaN,,800.0,,0 / 0,1537,2017-10-05 18:50:44:474
0.722,5.221,9.393,0.506,4.973,8.437,0.205,0.164,0.806,-12.7,21.4,-0.6,0.0,-34.7,-27.9,-4.0,121.1,-30.4,-3.9,5.0,31.32,12.84534,77.66346,,NaN,,800.0,,0 / 0,1548,2017-10-05 18:50:44:485
0.722,5.221,9.393,0.405,4.967,8.446,0.305,0.17,0.797,-2.0,52.8,-15.0,0.0,-35.2,-28.0,-3.4,121.1,-30.4,-3.9,5.0,31.32,12.84534,77.66346,,NaN,,800.0,,0 / 0,1558,2017-10-05 18:50:44:495
-1.206,5.027,8.237,0.274,5.004,8.43,-1.461,-0.058,-0.325,8.5,85.7,-25.3,1.066,-35.1,-28.0,-3.0,122.0,-30.4,-2.7,5.0,31.32,12.84534,77.66346,,NaN,,800.0,,0 / 0,1568,2017-10-05 18:50:44:505
-1.206,5.027,8.237,0.274,5.004,8.43,-1.461,-0.058,-0.325,8.5,85.7,-25.3,1.066,-35.1,-28.0,-3.0,122.0,-30.4,-2.7,5.0,31.32,12.84534,77.66346,,NaN,,800.0,,0 / 0,1577,2017-10-05 18:50:44:514
-2.263,3.167,7.741,-0.011,5.009,8.431,-2.216,-1.893,-0.815,5.1,140.0,-14.8,1.066,-34.9,-28.0,-2.6,122.0,-30.4,-2.7,5.0,31.32,12.84534,77.66346,,NaN,,800.0,,0 / 0,1588,2017-10-05 18:50:44:525
-2.263,3.167,7.741,-0.011,5.009,8.431,-2.216,-1.893,-0.815,5.1,140.0,-14.8,1.066,-34.9,-28.0,-2.6,122.0,-30.4,-2.7,5.0,31.32,12.84534,77.66346,,NaN,,800.0,,0 / 0,1599,2017-10-05 18:50:44:536
-2.183,3.33,7.121,-0.433,4.998,8.426,-1.714,-1.722,-1.42,-4.7,135.4,-7.4,1.066,-35.2,-28.0,-2.3,124.4,-30.6,2.9,5.0,31.32,12.84534,77.66346,,NaN,,800.0,,0 / 0,1607,2017-10-05 18:50:44:544
-2.183,3.33,7.121,-0.433,4.998,8.426,-1.714,-1.722,-1.42,-4.7,135.4,-7.4,1.066,-35.2,-28.0,-2.3,124.4,-30.6,2.9,5.0,31.32,12.84534,77.66346,,NaN,,800.0,,0 / 0,1617,2017-10-05 18:50:44:554
-2.183,3.33,7.121,-0.654,5.005,8.408,-1.493,-1.729,-1.401,-4.7,135.4,-7.4,1.066,-35.2,-28.0,-2.3,124.4,-30.6,2.9,5.0,31.32,12.84534,77.66346,,NaN,,800.0,,0 / 0,1627,2017-10-05 18:50:44:564
-1.484,3.999,5.045,-1.112,4.875,8.436,-0.349,-0.94,-3.472,-29.5,133.5,8.0,1.066,-34.9,-28.0,-2.5,124.4,-30.6,2.9,5.0,31.32,12.84534,77.66346,,NaN,,800.0,,0 / 0,1638,2017-10-05 18:50:44:575
-1.484,3.999,5.045,-1.112,4.875,8.436,-0.349,-0.94,-3.472,-57.9,160.6,34.1,1.066,-34.9,-28.0,-2.5,124.4,-30.6,2.9,5.0,31.32,12.84534,77.66346,,NaN,,800.0,,0 / 0,1646,2017-10-05 18:50:44:583
-0.301,3.496,5.636,-1.586,4.752,8.43,1.289,-1.312,-2.885,-66.5,188.5,51.8,1.066,-34.6,-28.1,-2.9,125.6,-29.8,7.5,5.0,47.87,12.84534,77.66346,,NaN,,800.0,,0 / 0,1657,2017-10-05 18:50:44:594
-0.301,3.496,5.636,-1.586,4.752,8.43,1.289,-1.312,-2.885,-66.5,188.5,51.8,1.066,-34.6,-28.1,-2.9,125.6,-29.8,7.5,5.0,47.87,12.84534,77.66346,,NaN,,800.0,,0 / 0,1667,2017-10-05 18:50:44:604
-0.779,3.604,6.037,-2.024,4.596,8.423,1.258,-1.05,-2.483,-75.0,167.9,69.3,1.066,-34.0,-28.3,-3.7,125.6,-29.8,7.5,5.0,47.87,12.84534,77.66346,,NaN,,800.0,,0 / 0,1677,2017-10-05 18:50:44:614
-0.779,3.604,6.037,-2.024,4.596,8.423,1.258,-1.05,-2.483,-88.8,129.0,79.9,1.066,-34.0,-28.3,-3.7,125.6,-29.8,7.5,5.0,47.87,12.84534,77.66346,,NaN,,800.0,,0 / 0,1687,2017-10-05 18:50:44:624
-0.779,3.604,6.037,-2.024,4.596,8.423,1.258,-1.05,-2.483,-88.8,129.0,79.9,1.066,-34.0,-28.3,-3.7,125.6,-29.8,7.5,5.0,47.87,12.84534,77.66346,,NaN,,800.0,,0 / 0,1697,2017-10-05 18:50:44:634
0.573,3.028,7.096,-2.316,4.438,8.433,2.879,-1.459,-1.451,-88.8,129.0,79.9,1.066,-34.0,-27.8,-4.9,127.4,-27.9,13.5,5.0,47.87,12.84534,77.66346,,NaN,,800.0,,0 / 0,1707,2017-10-05 18:50:44:644
0.573,3.028,7.096,-2.316,4.438,8.433,2.879,-1.459,-1.451,-83.7,96.9,73.9,1.066,-34.0,-27.8,-4.9,127.4,-27.9,13.5,5.0,47.87,12.84534,77.66346,,NaN,,800.0,,0 / 0,1717,2017-10-05 18:50:44:654
0.675,3.205,6.718,-2.563,4.296,8.435,3.227,-1.142,-1.825,-77.5,59.6,54.0,1.066,-33.2,-27.9,-6.6,127.4,-27.9,13.5,5.0,47.87,12.84534,77.66346,,NaN,,800.0,,0 / 0,1727,2017-10-05 18:50:44:664
-1.02,3.601,5.777,-2.595,4.211,8.468,1.591,-0.668,-2.784,-77.5,59.6,54.0,1.066,-32.6,-27.8,-8.3,127.4,-27.9,13.5,5.0,47.87,12.84534,77.66346,,NaN,,800.0,,0 / 0,1737,2017-10-05 18:50:44:674
-0.484,3.978,5.225,-2.598,3.944,8.594,2.122,-0.03,-3.453,-81.8,25.4,12.7,0.0,-32.5,-27.2,-10.6,124.6,-25.4,17.0,5.0,47.87,12.84534,77.66346,,NaN,,800.0,,0 / 0,1747,2017-10-05 18:50:44:684
-0.484,3.978,5.225,-2.598,3.944,8.594,2.122,-0.03,-3.453,-81.8,25.4,12.7,0.0,-32.5,-27.2,-10.6,124.6,-25.4,17.0,5.0,47.87,12.84534,77.66346,,NaN,,800.0,,0 / 0,1757,2017-10-05 18:50:44:694
0.147,4.539,6.521,-2.564,3.766,8.684,2.708,0.7,-2.269,-94.4,3.1,-43.0,0.0,-32.5,-27.2,-10.6,124.6,-25.4,17.0,5.0,47.87,12.84534,77.66346,,NaN,,800.0,,0 / 0,1767,2017-10-05 18:50:44:704
0.147,4.539,6.521,-2.564,3.766,8.684,2.708,0.7,-2.269,-94.4,3.1,-43.0,0.0,-32.5,-27.2,-10.6,124.6,-25.4,17.0,5.0,47.87,12.84534,77.66346,,NaN,,800.0,,0 / 0,1777,2017-10-05 18:50:44:714
-0.065,4.913,6.701,-2.704,3.504,8.751,2.64,1.33,-2.158,-103.5,21.1,-98.5,0.0,-32.0,-26.6,-12.5,124.6,-25.4,17.0,5.0,47.87,12.84534,77.66346,,NaN,,800.0,,0 / 0,1787,2017-10-05 18:50:44:724
-4.65,3.84,8.334,-2.86,3.221,8.81,-1.715,0.558,-0.61,-79.7,62.3,-108.8,0.0,-31.8,-26.2,-14.7,122.8,-20.9,17.2,5.0,47.87,12.84534,77.66346,,NaN,,800.0,,0 / 0,1797,2017-10-05 18:50:44:734
-4.65,3.84,8.334,-2.86,3.221,8.81,-1.715,0.558,-0.61,-79.7,62.3,-108.8,0.0,-31.8,-26.2,-14.7,122.8,-20.9,17.2,5.0,47.87,12.84534,77.66346,,NaN,,800.0,,0 / 0,1807,2017-10-05 18:50:44:744
-4.65,3.84,8.334,-2.86,3.221,8.81,-1.715,0.558,-0.61,-12.8,137.8,-82.3,0.0,-31.8,-26.2,-14.7,122.8,-20.9,17.2,5.0,47.87,12.84534,77.66346,,NaN,,800.0,,0 / 0,1817,2017-10-05 18:50:44:754
-1.647,0.641,5.584,-3.315,3.173,8.667,1.695,-2.542,-3.172,81.4,213.7,-75.8,0.0,-31.5,-26.0,-16.6,122.8,-20.9,17.2,5.0,47.87,12.84534,77.66346,,NaN,,800.0,,0 / 0,1827,2017-10-05 18:50:44:764
-1.701,-0.383,3.082,-3.556,3.193,8.563,1.883,-3.569,-5.531,81.4,213.7,-75.8,0.0,-31.3,-25.3,-18.5,122.8,-20.9,17.2,5.0,47.87,12.84534,77.66346,,NaN,,800.0,,0 / 0,1836,2017-10-05 18:50:44:773
-1.701,-0.383,3.082,-3.556,3.193,8.563,1.883,-3.569,-5.531,81.4,213.7,-75.8,0.0,-31.3,-25.3,-18.5,122.8,-20.9,17.2,5.0,47.87,12.84534,77.66346,,NaN,,800.0,,0 / 0,1847,2017-10-05 18:50:44:784
-1.701,-0.383,3.082,-3.556,3.193,8.563,1.883,-3.569,-5.531,81.4,213.7,-75.8,0.0,-31.3,-25.3,-18.5,122.8,-20.9,17.2,5.0,47.87,12.84534,77.66346,,NaN,,800.0,,0 / 0,1857,2017-10-05 18:50:44:794
-1.24,-2.349,0.11,-4.363,3.526,8.044,3.143,-5.837,-7.935,158.9,298.4,-105.4,0.0,-30.6,-25.3,-20.0,120.6,-19.0,22.6,5.0,47.87,12.84534,77.66346,,NaN,,800.0,,0 / 0,1867,2017-10-05 18:50:44:804
-1.24,-2.349,0.11,-4.363,3.526,8.044,3.143,-5.837,-7.935,158.9,298.4,-105.4,0.0,-30.6,-25.3,-20.0,120.6,-19.0,22.6,5.0,47.87,12.84534,77.66346,,NaN,,800.0,,0 / 0,1877,2017-10-05 18:50:44:814
-1.24,-2.349,0.11,-4.363,3.526,8.044,3.143,-5.837,-7.935,158.9,298.4,-105.4,0.0,-30.6,-25.3,-20.0,120.6,-19.0,22.6,5.0,47.87,12.84534,77.66346,,NaN,,800.0,,0 / 0,1887,2017-10-05 18:50:44:824
-1.978,-4.827,-3.123,-5.928,3.507,6.98,3.982,-8.257,-10.053,177.3,460.7,-210.0,0.0,-29.8,-25.3,-21.6,120.6,-19.0,22.6,5.0,47.87,12.84534,77.66346,,NaN,,800.0,,0 / 0,1897,2017-10-05 18:50:44:834
-1.978,-4.827,-3.123,-5.928,3.507,6.98,3.982,-8.257,-10.053,177.3,460.7,-210.0,0.0,-29.8,-25.3,-21.6,120.6,-19.0,22.6,5.0,47.87,12.84534,77.66346,,NaN,,800.0,,0 / 0,1907,2017-10-05 18:50:44:844
-6.029,-7.275,-1.174,-7.696,3.171,5.186,1.764,-10.329,-6.341,179.9,565.3,-288.4,0.0,-26.3,-27.2,-24.2,124.9,-21.0,40.3,5.0,47.87,12.84534,77.66346,,NaN,,800.0,,0 / 0,1917,2017-10-05 18:50:44:854
-6.029,-7.275,-1.174,-7.696,3.171,5.186,1.764,-10.329,-6.341,193.2,565.0,-336.4,0.0,-26.3,-27.2,-24.2,124.9,-21.0,40.3,5.0,47.87,12.84534,77.66346,,NaN,,800.0,,0 / 0,1927,2017-10-05 18:50:44:864
-7.807,-8.305,0.022,-8.729,2.604,3.633,1.047,-10.776,-3.611,193.2,565.0,-336.4,0.0,-23.2,-28.7,-25.3,124.9,-21.0,40.3,5.0,47.87,12.84534,77.66346,,NaN,,800.0,,0 / 0,1937,2017-10-05 18:50:44:874
-7.807,-8.305,0.022,-8.729,2.604,3.633,1.047,-10.776,-3.611,193.2,565.0,-336.4,0.0,-23.2,-28.7,-25.3,124.9,-21.0,40.3,5.0,47.87,12.84534,77.66346,,NaN,,800.0,,0 / 0,1947,2017-10-05 18:50:44:884
-10.118,-10.074,-0.244,-9.424,1.652,2.151,-0.532,-11.564,-2.391,179.2,482.7,-392.2,0.0,-18.9,-30.7,-25.8,135.5,-15.4,67.4,5.0,46.68,12.84534,77.66346,,NaN,,800.0,,0 / 0,1957,2017-10-05 18:50:44:894
-10.118,-10.074,-0.244,-9.424,1.652,2.151,-0.532,-11.564,-2.391,134.0,346.8,-429.1,0.0,-18.9,-30.7,-25.8,135.5,-15.4,67.4,5.0,46.68,12.84534,77.66346,,NaN,,800.0,,0 / 0,1967,2017-10-05 18:50:44:904
-14.812,-10.893,0.614,-9.69,0.319,1.474,-4.885,-11.037,-0.87,134.0,346.8,-429.1,0.0,-13.6,-32.8,-26.0,135.5,-15.4,67.4,5.0,46.68,12.84534,77.66346,,NaN,,800.0,,0 / 0,1977,2017-10-05 18:50:44:914
-14.812,-10.893,0.614,-9.69,0.319,1.474,-4.885,-11.037,-0.87,96.5,202.2,-417.9,0.0,-13.6,-32.8,-26.0,135.5,-15.4,67.4,5.0,46.68,12.84534,77.66346,,NaN,,800.0,,0 / 0,1986,2017-10-05 18:50:44:923
-20.074,-10.976,2.411,-9.715,-0.896,0.991,-10.036,-9.904,1.381,96.5,202.2,-417.9,0.0,-7.7,-34.6,-25.6,142.5,-1.9,81.4,5.0,46.68,12.84534,77.66346,,NaN,,800.0,,0 / 0,1997,2017-10-05 18:50:44:934
-22.037,-11.273,4.504,-9.625,-1.494,1.137,-12.058,-9.598,3.295,93.8,98.4,-377.8,0.0,-7.7,-34.6,-25.6,142.5,-1.9,81.4,5.0,46.68,12.84534,77.66346,,NaN,,800.0,,0 / 0,2006,2017-10-05 18:50:44:943
-22.037,-11.273,4.504,-9.625,-1.494,1.137,-12.058,-9.598,3.295,113.6,33.9,-324.3,0.0,-7.7,-34.6,-25.6,142.5,-1.9,81.4,5.0,46.68,12.84534,77.66346,,NaN,,800.0,,0 / 0,2018,2017-10-05 18:50:44:955
-21.733,-10.472,3.873,-9.39,-2.62,1.06,-11.993,-7.684,2.751,113.6,33.9,-324.3,0.0,-1.0,-36.1,-24.4,142.5,-1.9,81.4,5.0,46.68,12.84534,77.66346,,NaN,,800.0,,0 / 0,2027,2017-10-05 18:50:44:964
-21.733,-10.472,3.873,-9.39,-2.62,1.06,-11.993,-7.684,2.751,113.6,33.9,-324.3,0.0,-1.0,-36.1,-24.4,142.5,-1.9,81.4,5.0,46.68,12.84534,77.66346,,NaN,,800.0,,0 / 0,2037,2017-10-05 18:50:44:974
-17.591,-10.368,1.701,-9.009,-3.659,1.272,-8.299,-6.542,0.401,116.8,-11.9,-297.2,0.0,5.8,-36.6,-22.9,149.7,15.5,83.6,5.0,46.68,12.84534,77.66346,,NaN,,800.0,,0 / 0,2048,2017-10-05 18:50:44:985
-17.591,-10.368,1.701,-9.009,-3.659,1.272,-8.299,-6.542,0.401,96.5,-44.1,-298.5,0.0,5.8,-36.6,-22.9,149.7,15.5,83.6,5.0,46.68,12.84534,77.66346,,NaN,,800.0,,0 / 0,2056,2017-10-05 18:50:44:993
-19.162,-11.1,2.105,-8.548,-4.528,1.613,-10.307,-6.394,0.458,89.8,-32.9,-297.3,0.0,12.4,-36.4,-21.1,149.7,15.5,83.6,5.0,46.68,12.84534,77.66346,,NaN,,800.0,,0 / 0,2067,2017-10-05 18:50:45:004
-19.162,-11.1,2.105,-8.049,-5.306,1.795,-13.371,-6.082,2.021,89.8,-32.9,-297.3,0.0,12.4,-36.4,-21.1,149.7,15.5,83.6,5.0,46.68,12.84534,77.66346,,NaN,,800.0,,0 / 0,2077,2017-10-05 18:50:45:014
-21.77,-11.574,3.879,-8.049,-5.306,1.795,-13.371,-6.082,2.021,115.4,2.0,-281.3,0.0,18.8,-35.3,-19.1,160.9,32.8,77.4,5.0,46.68,12.84534,77.66346,,NaN,,800.0,,0 / 0,2086,2017-10-05 18:50:45:023
-21.77,-11.574,3.879,-8.049,-5.306,1.795,-13.371,-6.082,2.021,148.7,0.8,-244.5,0.0,18.8,-35.3,-19.1,160.9,32.8,77.4,5.0,46.68,12.84534,77.66346,,NaN,,800.0,,0 / 0,2097,2017-10-05 18:50:45:034
-22.786,-9.372,2.885,-7.51,-5.969,2.037,-14.91,-3.253,0.802,148.7,0.8,-244.5,0.0,24.5,-33.5,-16.9,160.9,32.8,77.4,0.0,46.68,12.84534,77.66346,,NaN,,800.0,,0 / 0,2107,2017-10-05 18:50:45:044
-22.786,-9.372,2.885,-7.51,-5.969,2.037,-14.91,-3.253,0.802,130.0,-62.1,-209.7,0.0,24.5,-33.5,-16.9,160.9,32.8,77.4,0.0,46.68,12.84534,77.66346,,NaN,,800.0,,0 / 0,2118,2017-10-05 18:50:45:055
-23.109,-7.465,-0.713,-7.017,-6.411,2.413,-15.721,-0.934,-3.115,130.0,-62.1,-209.7,0.0,29.6,-30.8,-15.1,171.6,37.5,74.8,0.0,46.68,12.84534,77.66346,,NaN,,800.0,,0 / 0,2127,2017-10-05 18:50:45:064
-23.109,-7.465,-0.713,-7.017,-6.411,2.413,-15.721,-0.934,-3.115,51.2,-163.6,-173.9,0.0,29.6,-30.8,-15.1,171.6,37.5,74.8,0.0,46.68,12.84534,77.66346,,NaN,,800.0,,0 / 0,2137,2017-10-05 18:50:45:074
-24.065,-5.771,-2.26,-6.426,-6.875,2.76,-17.253,1.197,-4.984,51.2,-163.6,-173.9,0.0,33.5,-26.9,-13.2,171.6,37.5,74.8,0.0,46.68,12.84534,77.66346,,NaN,,800.0,,0 / 0,2147,2017-10-05 18:50:45:084
-24.065,-5.771,-2.26,-6.426,-6.875,2.76,-17.253,-0.734,-1.02,22.5,-197.9,-101.2,0.0,36.5,-23.3,-12.1,184.7,44.5,66.8,0.0,46.68,12.84534,77.66346,,NaN,,800.0,,0 / 0,2159,2017-10-05 18:50:45:096
-20.534,-7.95,2.154,-6.006,-7.088,3.139,-14.198,-0.734,-1.02,48.9,-190.8,-48.6,0.0,36.5,-23.3,-12.1,184.7,44.5,66.8,0.0,46.68,12.84534,77.66346,,NaN,,800.0,,0 / 0,2167,2017-10-05 18:50:45:104
-20.534,-7.95,2.154,-6.006,-7.088,3.139,-14.198,-0.734,-1.02,48.9,-190.8,-48.6,0.0,36.5,-23.3,-12.1,184.7,44.5,66.8,0.0,46.68,12.84534,77.66346,,NaN,,800.0,,0 / 0,2177,2017-10-05 18:50:45:114
-12.973,-8.12,2.649,-5.759,-7.121,3.507,-7.006,-0.869,-0.901,48.9,-190.8,-48.6,0.0,39.0,-19.4,-11.5,184.7,44.5,66.8,0.0,46.68,12.84534,77.66346,,NaN,,800.0,,0 / 0,2186,2017-10-05 18:50:45:123
-12.973,-8.12,2.649,-5.759,-7.121,3.507,-7.006,-0.869,-0.901,53.8,-166.8,-24.2,0.0,39.0,-19.4,-11.5,184.7,44.5,66.8,0.0,46.68,12.84534,77.66346,,NaN,,800.0,,0 / 0,2197,2017-10-05 18:50:45:134
-11.303,-6.753,4.474,-5.451,-7.169,3.88,-5.671,0.525,0.522,68.8,-144.9,-14.1,0.0,40.7,-16.0,-11.6,195.1,46.6,58.7,0.0,46.68,12.84534,77.66346,,NaN,,800.0,,0 / 0,2207,2017-10-05 18:50:45:144
-11.303,-6.753,4.474,-5.451,-7.169,3.88,-5.671,0.525,0.522,90.4,-104.0,4.4,0.0,40.7,-16.0,-11.6,195.1,46.6,58.7,0.0,46.68,12.84534,77.66346,,NaN,,800.0,,0 / 0,2217,2017-10-05 18:50:45:154
-12.114,-8.42,6.528,-5.282,-7.087,4.247,-6.638,-1.197,2.176,90.4,-104.0,4.4,0.0,41.9,-12.9,-12.3,195.1,46.6,58.7,0.0,46.68,12.84534,77.66346,,NaN,,800.0,,0 / 0,2227,2017-10-05 18:50:45:164
-12.114,-8.42,6.528,-5.282,-7.087,4.247,-6.638,-1.197,2.176,110.4,-107.4,18.6,0.0,41.9,-12.9,-12.3,195.1,46.6,58.7,0.0,46.68,12.84534,77.66346,,NaN,,800.0,,0 / 0,2237,2017-10-05 18:50:45:174
-13.683,-4.148,4.687,-5.199,-6.892,4.653,-8.265,2.811,-0.041,110.4,-107.4,18.6,1.066,42.9,-10.3,-13.1,204.4,46.3,51.2,0.0,46.68,12.84534,77.66346,,NaN,,800.0,,0 / 0,2248,2017-10-05 18:50:45:185
-13.683,-4.148,4.687,-5.199,-6.892,4.653,-8.265,2.811,-0.041,110.4,-107.4,18.6,1.066,42.9,-10.3,-13.1,204.4,46.3,51.2,0.0,46.68,12.84534,77.66346,,NaN,,800.0,,0 / 0,2257,2017-10-05 18:50:45:194
-13.711,-4.76,-1.06,-5.046,-6.685,5.101,-8.445,2.001,-6.144,66.9,-179.0,52.0,1.066,43.0,-8.3,-14.3,204.4,46.3,51.2,0.0,46.68,12.84534,77.66346,,NaN,,800.0,,0 / 0,2267,2017-10-05 18:50:45:204
-8.221,-4.953,0.62,-5.046,-6.685,5.101,-8.445,2.001,-6.144,21.1,-202.8,114.2,1.066,43.0,-8.3,-14.3,204.4,46.3,51.2,0.0,30.5,12.84534,77.66346,,NaN,,800.0,,0 / 0,2278,2017-10-05 18:50:45:215
-8.221,-4.953,0.62,-5.046,-6.685,5.101,-8.445,2.001,-6.144,21.1,-202.8,114.2,1.066,43.0,-8.3,-14.3,204.4,46.3,51.2,0.0,30.5,12.84534,77.66346,,NaN,,800.0,,0 / 0,2287,2017-10-05 18:50:45:224
-8.221,-4.953,0.62,-4.941,-6.234,5.736,-3.149,1.361,-5.126,21.1,-202.8,114.2,1.066,42.7,-7.0,-17.6,207.5,43.0,44.7,0.0,30.5,12.84534,77.66346,,NaN,,800.0,,0 / 0,2297,2017-10-05 18:50:45:234
-5.152,-4.344,0.993,-4.941,-6.234,5.736,-0.168,1.702,-5.059,15.0,-140.7,124.9,1.066,42.1,-7.3,-19.8,207.5,43.0,44.7,0.0,30.5,12.84534,77.66346,,NaN,,800.0,,0 / 0,2308,2017-10-05 18:50:45:245
-5.152,-4.344,0.993,-4.902,-5.976,6.036,-0.168,1.702,-5.059,15.0,-140.7,124.9,1.066,42.1,-7.3,-19.8,207.5,43.0,44.7,0.0,30.5,12.84534,77.66346,,NaN,,800.0,,0 / 0,2316,2017-10-05 18:50:45:253
-3.166,-2.248,1.666,-4.902,-5.976,6.036,-0.168,1.702,-5.059,16.2,-75.1,115.9,1.066,42.1,-7.3,-19.8,207.5,43.0,44.7,0.0,30.5,12.84534,77.66346,,NaN,,800.0,,0 / 0,2327,2017-10-05 18:50:45:264
-3.166,-2.248,1.666,-5.157,-5.771,6.022,1.784,4.043,-3.239,16.0,-3.8,97.3,1.066,40.9,-8.4,-22.1,208.9,37.5,39.1,0.0,30.5,12.84534,77.66346,,NaN,,800.0,,0 / 0,2337,2017-10-05 18:50:45:274
-3.428,-1.757,2.829,-5.157,-5.771,6.022,1.784,4.043,-3.239,16.0,-3.8,97.3,1.066,40.9,-8.4,-22.1,208.9,37.5,39.1,0.0,30.5,12.84534,77.66346,,NaN,,800.0,,0 / 0,2347,2017-10-05 18:50:45:284
-3.428,-1.757,2.829,-5.299,-5.624,6.038,1.698,3.515,-3.991,10.6,35.7,87.3,1.066,40.2,-9.7,-24.1,208.9,37.5,39.1,0.0,30.5,12.84534,77.66346,,NaN,,800.0,,0 / 0,2357,2017-10-05 18:50:45:294
-3.66,-2.143,2.081,-5.299,-5.624,6.038,1.698,3.515,-3.991,10.6,35.7,87.3,1.066,40.2,-9.7,-24.1,208.9,37.5,39.1,0.0,30.5,12.84534,77.66346,,NaN,,800.0,,0 / 0,2369,2017-10-05 18:50:45:306
-3.66,-2.143,2.081,-5.577,-5.446,5.95,0.409,3.577,-2.033,5.7,72.3,80.9,1.066,39.2,-11.4,-25.6,199.2,35.0,41.3,0.0,30.5,12.84534,77.66346,,NaN,,800.0,,0 / 0,2377,2017-10-05 18:50:45:314
-6.589,-3.111,4.333,-5.577,-5.446,5.95,0.409,3.577,-2.033,5.0,87.5,87.9,1.066,39.2,-11.4,-25.6,199.2,35.0,41.3,0.0,30.5,12.84534,77.66346,,NaN,,800.0,,0 / 0,2387,2017-10-05 18:50:45:324
-6.589,-3.111,4.333,-5.945,-5.218,5.797,-0.538,2.158,-1.533,5.0,87.5,103.3,1.066,38.1,-12.8,-26.9,199.2,35.0,41.3,0.0,30.5,12.84534,77.66346,,NaN,,800.0,,0 / 0,2397,2017-10-05 18:50:45:334
-6.348,-3.29,3.563,-5.945,-5.218,5.797,-0.538,2.158,-1.533,-8.5,85.3,103.3,1.066,38.1,-12.8,-26.9,199.2,35.0,41.3,0.0,30.5,12.84534,77.66346,,NaN,,800.0,,0 / 0,2407,2017-10-05 18:50:45:344
-6.348,-3.29,3.563,-6.275,-5.006,5.633,0.029,1.769,-2.127,-36.1,76.9,111.6,0.0,37.4,-14.6,-27.8,188.8,32.1,45.7,0.0,30.5,12.84534,77.66346,,NaN,,800.0,,0 / 0,2417,2017-10-05 18:50:45:354
-6.281,-2.026,4.523,-6.275,-5.006,5.633,0.029,1.769,-2.127,-36.1,76.9,111.6,0.0,37.4,-14.6,-27.8,188.8,32.1,45.7,0.0,30.5,12.84534,77.66346,,NaN,,800.0,,0 / 0,2427,2017-10-05 18:50:45:364
-6.281,-2.026,4.523,-6.614,-4.83,5.394,0.373,2.124,-1.607,-72.8,57.8,105.4,0.0,36.5,-16.1,-28.4,188.8,32.1,45.7,0.0,30.5,12.84534,77.66346,,NaN,,800.0,,0 / 0,2437,2017-10-05 18:50:45:374
-6.342,-2.75,3.849,-6.614,-4.83,5.394,0.373,2.124,-1.607,-72.8,57.8,105.4,0.0,36.5,-16.1,-28.4,188.8,32.1,45.7,0.0,30.5,12.84534,77.66346,,NaN,,800.0,,0 / 0,2447,2017-10-05 18:50:45:384
-6.342,-2.75,3.849,-6.921,-4.704,5.113,-1.577,-0.241,-1.307,-89.9,55.5,94.2,0.0,35.7,-17.5,-28.7,180.4,29.5,50.8,0.0,30.5,12.84534,77.66346,,NaN,,800.0,,0 / 0,2457,2017-10-05 18:50:45:394
-8.636,-5.026,3.868,-6.921,-4.704,5.113,-1.577,-0.241,-1.307,-108.0,81.0,93.6,0.0,35.7,-17.5,-28.7,180.4,29.5,50.8,0.0,30.5,12.84534,77.66346,,NaN,,800.0,,0 / 0,2467,2017-10-05 18:50:45:404
-8.636,-5.026,3.868,-7.243,-4.517,4.827,-1.554,-0.508,-3.421,-108.0,81.0,93.6,0.0,35.1,-18.8,-28.6,180.4,29.5,50.8,0.0,30.5,12.84534,77.66346,,NaN,,800.0,,0 / 0,2477,2017-10-05 18:50:45:414
-7.449,-3.782,1.03,-7.243,-4.517,4.827,-1.554,-0.508,-3.421,-122.8,127.5,89.8,0.0,35.1,-18.8,-28.6,180.4,29.5,50.8,0.0,30.5,12.84534,77.66346,,NaN,,800.0,,0 / 0,2487,2017-10-05 18:50:45:424
-7.449,-3.782,1.03,-7.56,-4.433,4.4,0.231,0.712,-3.386,-122.8,127.5,89.8,0.0,34.7,-19.5,-28.3,169.9,26.9,59.8,0.0,30.5,12.84534,77.66346,,NaN,,800.0,,0 / 0,2497,2017-10-05 18:50:45:434
-8.901,-3.503,0.95,-7.972,-4.409,3.63,-0.786,0.962,-2.696,-131.1,182.2,81.4,0.0,34.2,-20.4,-28.0,169.9,26.9,59.8,0.0,30.5,12.84534,77.66346,,NaN,,800.0,,0 / 0,2508,2017-10-05 18:50:45:445
-8.901,-3.503,0.95,-7.972,-4.409,3.63,-0.786,0.962,-2.696,-145.5,225.7,95.1,0.0,34.2,-20.4,-28.0,169.9,26.9,59.8,0.0,30.5,12.84534,77.66346,,NaN,,800.0,,0 / 0,2517,2017-10-05 18:50:45:454
-13.776,-0.598,0.311,-7.972,-4.409,3.63,-0.786,0.962,-2.696,-145.5,225.7,95.1,0.0,34.2,-20.4,-28.0,169.9,26.9,59.8,0.0,30.5,12.84534,77.66346,,NaN,,800.0,,0 / 0,2527,2017-10-05 18:50:45:464
-13.631,-0.916,-4.644,-8.36,-4.3,2.791,-5.052,3.398,-7.36,-221.8,143.8,125.4,0.0,34.0,-21.0,-27.2,164.5,26.7,65.5,0.0,30.5,12.84534,77.66346,,NaN,,800.0,,0 / 0,2537,2017-10-05 18:50:45:474
-13.631,-0.916,-4.644,-8.36,-4.3,2.791,-5.052,3.398,-7.36,-221.8,143.8,125.4,0.0,34.0,-21.0,-27.2,164.5,26.7,65.5,0.0,30.5,12.84534,77.66346,,NaN,,800.0,,0 / 0,2547,2017-10-05 18:50:45:484
-2.656,-10.875,4.591,-8.617,-4.255,1.954,6.003,-6.446,2.564,-280.4,104.1,58.5,0.0,33.8,-21.7,-26.8,164.5,26.7,65.5,0.0,30.5,12.84534,77.66346,,NaN,,800.0,,0 / 0,2557,2017-10-05 18:50:45:494
-2.656,-10.875,4.591,-8.617,-4.255,1.954,6.003,-6.446,2.564,-260.7,81.8,-35.1,0.0,33.8,-21.7,-26.8,164.5,26.7,65.5,0.0,30.5,12.84534,77.66346,,NaN,,800.0,,0 / 0,2567,2017-10-05 18:50:45:504
-7.434,-7.815,5.227,-8.706,-4.359,1.171,1.391,-3.33,3.972,-260.7,81.8,-35.1,0.0,33.8,-22.1,-26.3,154.1,25.7,77.2,0.0,39.29,12.84534,77.66346,,NaN,,800.0,,0 / 0,2577,2017-10-05 18:50:45:514
-7.434,-7.815,5.227,-8.706,-4.359,1.171,1.391,-3.33,3.972,-204.6,64.9,-49.7,7.463,33.8,-22.1,-26.3,154.1,25.7,77.2,0.0,39.29,12.84534,77.66346,,NaN,,800.0,,0 / 0,2588,2017-10-05 18:50:45:525
-9.485,-7.262,4.459,-8.816,-4.281,0.348,-0.517,-2.864,4.039,-204.6,64.9,-49.7,7.463,33.7,-22.3,-26.6,154.1,25.7,77.2,0.0,39.29,12.84534,77.66346,,NaN,,800.0,,0 / 0,2597,2017-10-05 18:50:45:534
-9.485,-7.262,4.459,-8.816,-4.281,0.348,-0.517,-2.864,4.039,-150.3,79.1,-51.6,7.463,33.7,-22.3,-26.6,154.1,25.7,77.2,0.0,39.29,12.84534,77.66346,,NaN,,800.0,,0 / 0,2607,2017-10-05 18:50:45:544
-7.418,-7.651,-1.74,-8.759,-4.403,-0.243,1.461,-3.125,-1.47,-150.3,79.1,-51.6,7.463,34.0,-22.1,-26.5,143.8,25.9,87.7,0.0,39.29,12.84534,77.66346,,NaN,,800.0,,0 / 0,2617,2017-10-05 18:50:45:554
-7.418,-7.651,-1.74,-8.759,-4.403,-0.243,1.461,-3.125,-1.47,-132.9,49.0,-54.0,7.463,34.0,-22.1,-26.5,143.8,25.9,87.7,0.0,39.29,12.84534,77.66346,,NaN,,800.0,,0 / 0,2628,2017-10-05 18:50:45:565
-7.278,-8.056,-3.129,-8.652,-4.605,-0.318,1.491,-3.321,-2.761,-109.7,7.4,-75.9,7.463,34.4,-21.4,-26.7,143.8,25.9,87.7,0.0,39.29,12.84534,77.66346,,NaN,,800.0,,0 / 0,2638,2017-10-05 18:50:45:575
-7.278,-8.056,-3.129,-8.514,-4.814,-0.714,0.764,-5.171,-0.239,-109.7,7.4,-75.9,7.463,35.1,-20.3,-26.8,138.3,29.4,94.8,0.0,39.29,12.84534,77.66346,,NaN,,800.0,,0 / 0,2652,2017-10-05 18:50:45:589
-7.876,-10.148,-0.969,-8.514,-4.814,-0.714,0.764,-5.171,-0.239,-109.7,7.4,-75.9,7.463,35.1,-20.3,-26.8,138.3,29.4,94.8,0.0,39.29,12.84534,77.66346,,NaN,,800.0,,0 / 0,2657,2017-10-05 18:50:45:594
-7.876,-10.148,-0.969,-8.419,-4.959,-0.834,0.67,-5.026,-0.119,-64.6,18.2,-106.1,7.463,35.1,-20.3,-26.8,138.3,29.4,94.8,0.0,39.29,12.84534,77.66346,,NaN,,800.0,,0 / 0,2669,2017-10-05 18:50:45:606
-11.404,-5.859,-4.313,-8.419,-4.959,-0.834,0.67,-5.026,-0.119,-37.4,18.7,-77.4,7.463,35.7,-19.0,-26.9,138.3,29.4,94.8,0.0,39.29,12.84534,77.66346,,NaN,,800.0,,0 / 0,2677,2017-10-05 18:50:45:614
-11.404,-5.859,-4.313,-8.295,-5.118,-1.08,-2.925,-0.648,-3.164,-37.4,18.7,-77.4,7.463,35.7,-19.0,-26.9,138.3,29.4,94.8,0.0,39.29,12.84534,77.66346,,NaN,,800.0,,0 / 0,2687,2017-10-05 18:50:45:624
-7.253,-5.764,-0.828,-8.295,-5.118,-1.08,-2.925,-0.648,-3.164,-36.7,-6.9,-57.6,7.463,36.2,-17.4,-27.2,134.9,31.5,97.4,0.0,39.29,12.84534,77.66346,,NaN,,800.0,,0 / 0,2697,2017-10-05 18:50:45:634
-7.253,-5.764,-0.828,-8.139,-5.353,-1.127,-1.997,-0.287,2.877,-13.5,-65.6,-68.2,7.463,36.2,-17.4,-27.2,134.9,31.5,97.4,0.0,39.29,12.84534,77.66346,,NaN,,800.0,,0 / 0,2706,2017-10-05 18:50:45:643
-10.301,-5.732,1.778,-8.139,-5.353,-1.127,-1.997,-0.287,2.877,-13.5,-65.6,-68.2,7.463,36.8,-15.5,-27.5,134.9,31.5,97.4,0.0,39.29,12.84534,77.66346,,NaN,,800.0,,0 / 0,2717,2017-10-05 18:50:45:654
-10.301,-5.732,1.778,-8.03,-5.566,-0.839,-1.467,-0.173,4.836,32.0,-113.1,-75.3,7.463,36.8,-15.5,-27.5,134.9,31.5,97.4,0.0,39.29,12.84534,77.66346,,NaN,,800.0,,0 / 0,2727,2017-10-05 18:50:45:664
-9.652,-5.833,4.062,-8.03,-5.566,-0.839,-1.467,-0.173,4.836,32.0,-113.1,-75.3,7.463,37.1,-13.6,-27.9,134.1,34.6,96.0,0.0,39.29,12.84534,77.66346,,NaN,,800.0,,0 / 0,2737,2017-10-05 18:50:45:674
-9.652,-5.833,4.062,-7.907,-5.774,-0.563,1.318,-0.819,5.857,94.1,-140.6,-87.3,7.463,37.1,-13.6,-27.9,134.1,34.6,96.0,0.0,39.29,12.84534,77.66346,,NaN,,800.0,,0 / 0,2747,2017-10-05 18:50:45:684
-4.193,-7.381,3.761,-7.907,-5.774,-0.563,1.318,-0.819,5.857,143.6,-177.2,-131.0,5.33,37.5,-11.7,-27.8,134.1,34.6,96.0,0.0,39.29,12.84534,77.66346,,NaN,,800.0,,0 / 0,2757,2017-10-05 18:50:45:694
-4.193,-7.381,3.761,-7.708,-6.061,0.132,3.582,-1.201,3.569,143.6,-177.2,-131.0,5.33,37.5,-11.7,-27.8,134.1,34.6,96.0,0.0,39.29,12.84534,77.66346,,NaN,,800.0,,0 / 0,2767,2017-10-05 18:50:45:704
-4.559,-7.517,4.639,-7.708,-6.061,0.132,3.582,-1.201,3.569,133.1,-178.5,-201.5,5.33,37.7,-10.2,-28.4,139.2,38.2,89.0,0.0,39.29,12.84534,77.66346,,NaN,,800.0,,0 / 0,2778,2017-10-05 18:50:45:715
-4.559,-7.517,4.639,-7.213,-6.551,1.108,2.727,-0.845,3.457,133.1,-178.5,-201.5,5.33,37.7,-10.2,-28.4,139.2,38.2,89.0,0.0,39.29,12.84534,77.66346,,NaN,,800.0,,0 / 0,2787,2017-10-05 18:50:45:724
-4.419,-4.063,-4.048,-7.213,-6.551,1.108,2.727,-0.845,3.457,81.4,-95.4,-265.0,5.33,37.5,-8.8,-29.1,139.2,38.2,89.0,0.0,39.29,12.84534,77.66346,,NaN,,800.0,,0 / 0,2798,2017-10-05 18:50:45:735
-4.419,-4.063,-4.048,-6.644,-7.061,1.474,-0.149,2.715,-7.072,31.1,42.4,-263.5,5.33,37.5,-8.8,-29.1,139.2,38.2,89.0,0.0,39.29,12.84534,77.66346,,NaN,,800.0,,0 / 0,2807,2017-10-05 18:50:45:744
-6.903,-4.417,-5.689,-6.644,-7.061,1.474,-0.149,2.715,-7.072,31.1,42.4,-263.5,5.33,37.1,-7.8,-30.1,149.6,46.1,77.5,0.0,39.29,12.84534,77.66346,,NaN,,800.0,,0 / 0,2818,2017-10-05 18:50:45:755
-6.903,-4.417,-5.689,-6.066,-7.452,1.958,0.304,2.733,-1.169,34.0,77.2,-224.1,5.33,37.1,-7.8,-30.1,149.6,46.1,77.5,0.0,39.29,12.84534,77.66346,,NaN,,800.0,,0 / 0,2827,2017-10-05 18:50:45:764
-5.857,-4.796,0.803,-6.066,-7.452,1.958,0.304,2.733,-1.169,34.0,77.2,-224.1,5.33,37.0,-6.7,-31.1,149.6,46.1,77.5,0.0,39.29,12.84534,77.66346,,NaN,,800.0,,0 / 0,2837,2017-10-05 18:50:45:774
-5.857,-4.796,0.803,-5.542,-7.791,2.182,0.151,1.308,2.058,80.0,-11.3,-175.9,5.33,37.0,-6.7,-31.1,149.6,46.1,77.5,0.0,39.29,12.84534,77.66346,,NaN,,800.0,,0 / 0,2847,2017-10-05 18:50:45:784
-5.755,-9.439,3.607,-5.542,-7.791,2.182,0.151,1.308,2.058,101.1,-136.1,-152.7,5.33,36.9,-5.2,-31.9,157.8,52.6,68.5,0.0,39.29,12.84534,77.66346,,NaN,,800.0,,0 / 0,2857,2017-10-05 18:50:45:794
-5.755,-9.439,3.607,-4.936,-8.169,2.252,-0.727,-1.118,1.297,101.1,-136.1,-152.7,5.33,36.9,-5.2,-31.9,157.8,52.6,68.5,0.0,39.29,12.84534,77.66346,,NaN,,800.0,,0 / 0,2867,2017-10-05 18:50:45:804
-8.591,-11.0,1.146,-4.936,-8.169,2.252,-0.727,-1.118,1.297,73.1,-156.0,-125.3,5.33,37.1,-3.8,-32.5,157.8,52.6,68.5,0.0,47.88,12.84534,77.66346,,NaN,,800.0,,0 / 0,2877,2017-10-05 18:50:45:814
-8.591,-11.0,1.146,-4.434,-8.382,2.5,-4.019,-2.441,-1.372,4.6,-62.3,-108.4,5.33,37.1,-3.8,-32.5,157.8,52.6,68.5,0.0,47.88,12.84534,77.66346,,NaN,,800.0,,0 / 0,2887,2017-10-05 18:50:45:824
-7.257,-14.147,1.057,-4.24,-8.443,2.628,-2.901,-5.477,-1.588,4.6,-62.3,-108.4,5.33,36.8,-2.4,-33.5,166.0,58.7,60.6,0.0,47.88,12.84534,77.66346,,NaN,,800.0,,0 / 0,2898,2017-10-05 18:50:45:835
-7.257,-14.147,1.057,-4.24,-8.443,2.628,-2.901,-5.477,-1.588,-47.4,22.9,-128.8,5.33,36.8,-2.4,-33.5,166.0,58.7,60.6,0.0,47.88,12.84534,77.66346,,NaN,,800.0,,0 / 0,2907,2017-10-05 18:50:45:844
-2.89,-10.208,4.629,-3.799,-8.605,2.773,0.955,-1.439,1.781,-47.4,22.9,-128.8,5.33,36.8,-1.1,-34.5,166.0,58.7,60.6,0.0,47.88,12.84534,77.66346,,NaN,,800.0,,0 / 0,2918,2017-10-05 18:50:45:855
-2.89,-10.208,4.629,-3.799,-8.605,2.773,0.955,-1.439,1.781,-70.6,52.5,-123.8,7.463,36.8,-1.1,-34.5,166.0,58.7,60.6,0.0,47.88,12.84534,77.66346,,NaN,,800.0,,0 / 0,2927,2017-10-05 18:50:45:864
-5.817,-9.073,4.163,-3.483,-8.857,2.364,-2.241,-0.07,1.733,-70.6,52.5,-123.8,7.463,36.3,0.5,-35.5,170.8,61.3,53.9,0.0,47.88,12.84534,77.66346,,NaN,,800.0,,0 / 0,2937,2017-10-05 18:50:45:874
-5.817,-9.073,4.163,-3.483,-8.857,2.364,-2.241,-0.07,1.733,-78.6,80.3,-86.1,7.463,36.3,0.5,-35.5,170.8,61.3,53.9,0.0,47.88,12.84534,77.66346,,NaN,,800.0,,0 / 0,2947,2017-10-05 18:50:45:884
-9.483,-8.903,2.054,-3.322,-8.973,2.151,-6.009,0.212,-0.131,-79.2,83.3,-43.5,7.463,36.2,2.0,-36.2,170.8,61.3,53.9,0.0,47.88,12.84534,77.66346,,NaN,,800.0,,0 / 0,2957,2017-10-05 18:50:45:894
-9.483,-8.903,2.054,-3.322,-8.973,2.151,-6.009,0.212,-0.131,-79.2,83.3,-43.5,7.463,36.2,2.0,-36.2,170.8,61.3,53.9,0.0,47.88,12.84534,77.66346,,NaN,,800.0,,0 / 0,2967,2017-10-05 18:50:45:904
-8.239,-8.87,0.236,-3.133,-9.088,1.941,-4.974,0.361,-1.709,-80.5,40.6,-20.1,7.463,36.3,3.7,-36.2,166.4,66.2,57.1,0.0,47.88,12.84534,77.66346,,NaN,,800.0,,0 / 0,2977,2017-10-05 18:50:45:914
-8.239,-8.87,0.236,-3.133,-9.088,1.941,-4.974,0.361,-1.709,-84.1,0.1,-1.3,7.463,36.3,3.7,-36.2,166.4,66.2,57.1,0.0,47.88,12.84534,77.66346,,NaN,,800.0,,0 / 0,2986,2017-10-05 18:50:45:923
-6.171,-8.868,-1.03,-3.124,-9.132,1.737,-2.948,0.406,-2.75,-84.1,0.1,-1.3,7.463,36.5,5.5,-35.8,166.4,66.2,57.1,0.0,47.88,12.84534,77.66346,,NaN,,800.0,,0 / 0,2997,2017-10-05 18:50:45:934
-6.171,-8.868,-1.03,-3.124,-9.132,1.737,-2.948,0.406,-2.75,-84.1,0.1,-1.3,7.463,36.5,5.5,-35.8,166.4,66.2,57.1,0.0,47.88,12.84534,77.66346,,NaN,,800.0,,0 / 0,3007,2017-10-05 18:50:45:944
-6.171,-8.868,-1.03,-3.124,-9.132,1.737,-2.948,0.406,-2.75,-84.1,0.1,-1.3,7.463,36.5,5.5,-35.8,166.4,66.2,57.1,0.0,47.88,12.84534,77.66346,,NaN,,800.0,,0 / 0,3017,2017-10-05 18:50:45:954
-3.736,-7.29,-0.695,-3.148,-9.167,1.494,-0.529,1.994,-2.178,-61.2,-6.9,17.8,7.463,36.4,6.7,-35.7,162.0,68.6,60.9,0.0,47.88,12.84534,77.66346,,NaN,,800.0,,0 / 0,3027,2017-10-05 18:50:45:964
-0.388,-7.955,-1.012,-3.148,-9.167,1.494,-0.529,1.994,-2.178,-40.6,-38.7,20.3,7.463,36.4,6.7,-35.7,162.0,68.6,60.9,0.0,47.88,12.84534,77.66346,,NaN,,800.0,,0 / 0,3037,2017-10-05 18:50:45:974
-0.388,-7.955,-1.012,-3.18,-9.21,1.111,4.456,-0.376,-2.475,-48.6,-48.5,8.7,7.463,36.1,8.0,-35.7,162.0,68.6,60.9,0.0,47.88,12.84534,77.66346,,NaN,,800.0,,0 / 0,3047,2017-10-05 18:50:45:984
1.296,-9.743,-1.386,-3.18,-9.21,1.111,4.456,-0.376,-2.475,-56.0,-10.1,-19.7,7.463,36.1,8.0,-35.7,162.0,68.6,60.9,0.0,47.88,12.84534,77.66346,,NaN,,800.0,,0 / 0,3058,2017-10-05 18:50:45:995
1.296,-9.743,-1.386,-3.174,-9.239,0.861,3.325,-0.711,-0.841,-56.0,-10.1,-19.7,7.463,36.2,9.2,-35.6,151.1,69.9,70.7,0.0,47.88,12.84534,77.66346,,NaN,,800.0,,0 / 0,3067,2017-10-05 18:50:46:004
-2.434,-9.963,0.354,-3.174,-9.239,0.861,3.325,-0.711,-0.841,-56.0,-10.1,-19.7,7.463,36.2,9.2,-35.6,151.1,69.9,70.7,0.0,47.88,12.84534,77.66346,,NaN,,800.0,,0 / 0,3077,2017-10-05 18:50:46:014
-2.434,-9.963,0.354,-2.979,-9.327,0.55,0.584,-0.476,-0.201,-43.8,64.4,-64.9,7.463,36.1,10.4,-35.3,151.1,69.9,70.7,0.0,47.88,12.84534,77.66346,,NaN,,800.0,,0 / 0,3088,2017-10-05 18:50:46:025
-2.756,-9.689,0.148,-2.979,-9.327,0.55,0.584,-0.476,-0.201,-22.7,112.8,-83.2,7.463,36.1,10.4,-35.3,151.1,69.9,70.7,0.0,47.88,12.84534,77.66346,,NaN,,800.0,,0 / 0,3097,2017-10-05 18:50:46:034
-2.756,-9.689,0.148,-2.786,-9.399,0.281,0.074,-0.135,-0.135,-22.7,112.8,-83.2,6.397,36.4,11.2,-34.7,142.5,72.0,79.5,0.0,47.88,12.84534,77.66346,,NaN,,800.0,,0 / 0,3107,2017-10-05 18:50:46:044
-2.756,-9.689,0.148,-2.786,-9.399,0.281,0.074,-0.135,-0.135,-6.8,140.1,-82.2,6.397,36.4,11.2,-34.7,142.5,72.0,79.5,0.0,47.88,12.84534,77.66346,,NaN,,800.0,,0 / 0,3118,2017-10-05 18:50:46:055
0.847,-7.315,1.029,-2.533,-9.474,0.073,3.366,2.276,0.939,12.9,172.4,-88.7,6.397,36.8,12.2,-34.0,142.5,72.0,79.5,0.0,47.88,12.84534,77.66346,,NaN,,800.0,,0 / 0,3127,2017-10-05 18:50:46:064
0.847,-7.315,1.029,-2.533,-9.474,0.073,3.366,2.276,0.939,24.3,159.4,-108.7,6.397,36.8,12.2,-34.0,142.5,72.0,79.5,0.0,47.88,12.84534,77.66346,,NaN,,800.0,,0 / 0,3138,2017-10-05 18:50:46:075
1.987,-4.286,3.318,-2.207,-9.555,-0.001,4.162,5.337,3.265,24.3,159.4,-108.7,6.397,37.0,13.3,-33.2,135.1,77.0,90.0,0.0,47.88,12.84534,77.66346,,NaN,,800.0,,0 / 0,3147,2017-10-05 18:50:46:084
1.987,-4.286,3.318,-2.207,-9.555,-0.001,4.162,5.337,3.265,24.3,159.4,-108.7,6.397,37.0,13.3,-33.2,135.1,77.0,90.0,0.0,47.88,12.84534,77.66346,,NaN,,800.0,,0 / 0,3157,2017-10-05 18:50:46:094
-3.416,-6.926,4.418,-1.87,-9.626,-0.088,-1.491,2.811,4.435,8.0,102.6,-116.1,6.397,37.0,14.2,-32.8,135.1,77.0,90.0,0.0,47.88,12.84534,77.66346,,NaN,,800.0,,0 / 0,3167,2017-10-05 18:50:46:104
-3.416,-6.926,4.418,-1.87,-9.626,-0.088,-1.491,2.811,4.435,4.1,34.2,-108.6,6.397,37.0,14.2,-32.8,135.1,77.0,90.0,0.0,47.88,12.84534,77.66346,,NaN,,800.0,,0 / 0,3177,2017-10-05 18:50:46:114
-4.865,-8.167,2.368,-1.506,-9.69,-0.001,-3.282,1.654,2.332,-7.1,-22.7,-78.8,6.397,37.1,15.1,-31.9,133.5,79.0,92.7,0.0,42.26,12.84534,77.66346,,NaN,,800.0,,0 / 0,3188,2017-10-05 18:50:46:125
-5.592,-7.491,0.964,-1.377,-9.709,0.093,-4.125,2.339,0.855,-7.1,-22.7,-78.8,6.397,37.4,15.8,-31.1,133.5,79.0,92.7,0.0,42.26,12.84534,77.66346,,NaN,,800.0,,0 / 0,3197,2017-10-05 18:50:46:134
-5.592,-7.491,0.964,-1.377,-9.709,0.093,-4.125,2.339,0.855,-7.1,-22.7,-78.8,6.397,37.4,15.8,-31.1,133.5,79.0,92.7,0.0,42.26,12.84534,77.66346,,NaN,,800.0,,0 / 0,3207,2017-10-05 18:50:46:144
-5.756,-10.1,1.198,-1.123,-9.738,0.275,-4.54,-0.2,0.904,6.4,-50.9,-43.6,6.397,37.4,17.0,-29.8,133.5,79.0,92.7,0.0,42.26,12.84534,77.66346,,NaN,,800.0,,0 / 0,3217,2017-10-05 18:50:46:154
-5.756,-10.1,1.198,-1.123,-9.738,0.275,-4.54,-0.2,0.904,52.3,-89.1,-13.4,6.397,37.4,17.0,-29.8,133.5,79.0,92.7,0.0,42.26,12.84534,77.66346,,NaN,,800.0,,0 / 0,3227,2017-10-05 18:50:46:164
-3.971,-9.844,-1.463,-1.062,-9.73,0.609,-2.845,0.044,-2.048,52.3,-89.1,-13.4,6.397,37.8,18.3,-28.6,155.2,83.2,76.3,0.0,42.26,12.84534,77.66346,,NaN,,800.0,,0 / 0,3238,2017-10-05 18:50:46:175
-3.971,-9.844,-1.463,-1.062,-9.73,0.609,-2.845,0.044,-2.048,69.1,-120.0,-4.9,6.397,37.8,18.3,-28.6,155.2,83.2,76.3,0.0,42.26,12.84534,77.66346,,NaN,,800.0,,0 / 0,3247,2017-10-05 18:50:46:184
-2.443,-8.763,-5.54,-0.913,-9.732,0.796,-1.491,1.109,-6.247,51.2,-102.4,-15.1,6.397,38.0,19.8,-27.7,155.2,83.2,76.3,0.0,42.26,12.84534,77.66346,,NaN,,800.0,,0 / 0,3258,2017-10-05 18:50:46:195
-2.443,-8.763,-5.54,-0.913,-9.732,0.796,-1.491,1.109,-6.247,51.2,-102.4,-15.1,6.397,38.0,19.8,-27.7,155.2,83.2,76.3,0.0,42.26,12.84534,77.66346,,NaN,,800.0,,0 / 0,3267,2017-10-05 18:50:46:204
-1.055,-8.438,-2.571,-0.825,-9.73,0.907,-0.213,1.427,-3.437,31.3,-57.1,-25.8,6.397,37.8,20.8,-27.1,186.1,82.9,48.9,0.0,42.26,12.84534,77.66346,,NaN,,800.0,,0 / 0,3278,2017-10-05 18:50:46:215
-1.055,-8.438,-2.571,-0.825,-9.73,0.907,-0.213,1.427,-3.437,31.3,-57.1,-25.8,6.397,37.8,20.8,-27.1,186.1,82.9,48.9,0.0,42.26,12.84534,77.66346,,NaN,,800.0,,0 / 0,3286,2017-10-05 18:50:46:223
-2.167,-11.952,-0.294,-0.761,-9.739,0.863,-1.372,-2.021,-1.153,31.3,-57.1,-25.8,6.397,37.4,21.5,-26.9,186.1,82.9,48.9,0.0,42.26,12.84534,77.66346,,NaN,,800.0,,0 / 0,3298,2017-10-05 18:50:46:235
-2.167,-11.952,-0.294,-0.761,-9.739,0.863,-1.372,-2.021,-1.153,16.1,-24.1,-8.7,6.397,37.4,21.5,-26.9,186.1,82.9,48.9,0.0,42.26,12.84534,77.66346,,NaN,,800.0,,0 / 0,3307,2017-10-05 18:50:46:244
-1.817,-13.365,1.299,-0.728,-9.764,0.558,-1.059,-3.387,0.72,-6.4,-22.6,5.2,6.397,37.0,22.1,-27.0,193.3,83.3,41.4,0.0,42.26,12.84534,77.66346,,NaN,,800.0,,0 / 0,3317,2017-10-05 18:50:46:254
-1.817,-13.365,1.299,-0.728,-9.764,0.558,-1.059,-3.387,0.72,-19.0,-17.6,-0.2,6.397,37.0,22.1,-27.0,193.3,83.3,41.4,0.0,42.26,12.84534,77.66346,,NaN,,800.0,,0 / 0,3327,2017-10-05 18:50:46:264
-1.374,-10.021,2.283,-0.714,-9.775,0.337,-0.638,-0.086,1.91,-19.0,-17.6,-0.2,6.397,36.6,22.6,-27.5,193.3,83.3,41.4,0.0,42.26,12.84534,77.66346,,NaN,,800.0,,0 / 0,3337,2017-10-05 18:50:46:274
-1.374,-10.021,2.283,-0.714,-9.775,0.337,-0.638,-0.086,1.91,-16.9,7.6,-1.3,6.397,36.6,22.6,-27.5,193.3,83.3,41.4,0.0,42.26,12.84534,77.66346,,NaN,,800.0,,0 / 0,3347,2017-10-05 18:50:46:284
-1.866,-9.172,3.102,-0.711,-9.778,0.233,-1.125,0.753,2.819,14.7,4.8,-7.8,6.397,35.9,23.0,-28.0,159.5,85.6,71.8,0.0,42.26,12.84534,77.66346,,NaN,,800.0,,0 / 0,3358,2017-10-05 18:50:46:295
-1.866,-9.172,3.102,-0.711,-9.778,0.233,-1.125,0.753,2.819,14.7,4.8,-7.8,6.397,35.9,23.0,-28.0,159.5,85.6,71.8,0.0,42.26,12.84534,77.66346,,NaN,,800.0,,0 / 0,3368,2017-10-05 18:50:46:305
-0.425,-11.021,1.975,-0.666,-9.773,0.457,0.248,-1.071,1.486,50.2,-24.1,-18.9,6.397,35.5,23.2,-28.7,159.5,85.6,71.8,0.0,42.26,12.84534,77.66346,,NaN,,800.0,,0 / 0,3377,2017-10-05 18:50:46:314
-0.425,-11.021,1.975,-0.666,-9.773,0.457,0.248,-1.071,1.486,50.2,-24.1,-18.9,6.397,35.5,23.2,-28.7,159.5,85.6,71.8,0.0,42.26,12.84534,77.66346,,NaN,,800.0,,0 / 0,3387,2017-10-05 18:50:46:324
-0.553,-12.185,0.622,-0.604,-9.762,0.708,0.06,-2.227,-0.096,85.0,-32.7,-33.9,6.397,35.1,23.2,-29.2,174.6,85.3,55.5,0.0,42.26,12.84534,77.66346,,NaN,,800.0,,0 / 0,3397,2017-10-05 18:50:46:334
-0.553,-12.185,0.622,-0.604,-9.762,0.708,0.06,-2.227,-0.096,92.8,4.1,-58.8,6.397,35.1,23.2,-29.2,174.6,85.3,55.5,0.0,42.26,12.84534,77.66346,,NaN,,800.0,,0 / 0,3407,2017-10-05 18:50:46:344
-0.523,-12.2,-2.586,-0.443,-9.727,1.165,-0.072,-2.277,-3.709,92.8,4.1,-58.8,6.397,34.8,22.9,-29.6,174.6,85.3,55.5,0.0,42.26,12.84534,77.66346,,NaN,,800.0,,0 / 0,3417,2017-10-05 18:50:46:354
-0.523,-12.2,-2.586,-0.366,-9.725,1.208,-0.148,-2.279,-3.753,50.3,3.3,-82.7,6.397,34.8,22.9,-29.6,174.6,85.3,55.5,0.0,42.26,12.84534,77.66346,,NaN,,800.0,,0 / 0,3429,2017-10-05 18:50:46:366
-0.523,-12.2,-2.586,-0.366,-9.725,1.208,-0.148,-2.279,-3.753,50.3,3.3,-82.7,8.529,34.8,22.9,-29.6,174.6,85.3,55.5,0.0,42.26,12.84534,77.66346,,NaN,,800.0,,0 / 0,3437,2017-10-05 18:50:46:374
-0.533,-11.374,-2.239,-0.062,-9.715,1.34,-0.463,-1.477,-3.543,-5.5,5.5,-98.3,8.529,34.5,22.7,-30.5,214.9,82.6,16.8,0.0,42.26,12.84534,77.66346,,NaN,,800.0,,0 / 0,3447,2017-10-05 18:50:46:384
-0.533,-11.374,-2.239,-0.062,-9.715,1.34,-0.463,-1.477,-3.543,-36.6,33.6,-99.2,8.529,34.5,22.7,-30.5,214.9,82.6,16.8,0.0,42.26,12.84534,77.66346,,NaN,,800.0,,0 / 0,3457,2017-10-05 18:50:46:394
-0.376,-10.091,1.027,0.205,-9.728,1.225,-0.575,-0.201,-0.214,-36.6,33.6,-99.2,8.529,34.6,22.7,-31.0,214.9,82.6,16.8,0.0,42.26,12.84534,77.66346,,NaN,,800.0,,0 / 0,3468,2017-10-05 18:50:46:405
-0.376,-10.091,1.027,0.205,-9.728,1.225,-0.575,-0.201,-0.214,-21.8,57.5,-105.9,8.529,34.6,22.7,-31.0,214.9,82.6,16.8,0.0,42.26,12.84534,77.66346,,NaN,,800.0,,0 / 0,3478,2017-10-05 18:50:46:415
-0.042,-9.456,2.048,0.55,-9.741,0.989,-0.591,0.437,1.025,-21.8,57.5,-105.9,8.529,34.6,22.5,-31.1,241.3,82.7,-9.5,0.0,45.17,12.84534,77.66346,,NaN,,800.0,,0 / 0,3487,2017-10-05 18:50:46:424
-0.042,-9.456,2.048,0.55,-9.741,0.989,-0.591,0.437,1.025,-21.8,57.5,-105.9,8.529,34.6,22.5,-31.1,241.3,82.7,-9.5,0.0,45.17,12.84534,77.66346,,NaN,,800.0,,0 / 0,3497,2017-10-05 18:50:46:434
0.267,-9.531,1.452,0.9,-9.725,0.881,-0.638,0.347,0.547,15.0,81.6,-107.5,8.529,34.4,22.9,-31.4,241.3,82.7,-9.5,0.0,45.17,12.84534,77.66346,,NaN,,800.0,,0 / 0,3507,2017-10-05 18:50:46:444
0.267,-9.531,1.452,0.9,-9.725,0.881,-0.638,0.347,0.547,32.3,124.5,-94.7,8.529,34.4,22.9,-31.4,241.3,82.7,-9.5,0.0,45.17,12.84534,77.66346,,NaN,,800.0,,0 / 0,3517,2017-10-05 18:50:46:454
0.712,-11.745,0.696,1.183,-9.685,0.981,-0.483,-1.871,-0.297,32.3,124.5,-94.7,8.529,34.4,23.6,-31.5,276.1,82.6,-45.6,0.0,45.17,12.84534,77.66346,,NaN,,800.0,,0 / 0,3527,2017-10-05 18:50:46:464
0.712,-11.745,0.696,1.183,-9.685,0.981,-0.483,-1.871,-0.297,0.0,140.0,-79.4,8.529,34.4,23.6,-31.5,276.1,82.6,-45.6,0.0,45.17,12.84534,77.66346,,NaN,,800.0,,0 / 0,3539,2017-10-05 18:50:46:476
1.874,-12.608,3.165,1.456,-9.645,1.008,0.388,-2.76,2.106,-36.4,78.9,-72.8,8.529,34.1,24.2,-31.6,276.1,82.6,-45.6,0.0,45.17,12.84534,77.66346,,NaN,,800.0,,0 / 0,3549,2017-10-05 18:50:46:486
1.874,-12.608,3.165,1.456,-9.645,1.008,0.388,-2.76,2.106,-36.4,78.9,-72.8,8.529,34.1,24.2,-31.6,276.1,82.6,-45.6,0.0,45.17,12.84534,77.66346,,NaN,,800.0,,0 / 0,3559,2017-10-05 18:50:46:496
-1.233,-11.899,3.897,1.654,-9.623,0.912,-2.867,-2.085,2.922,-49.3,-19.7,-53.4,8.529,33.8,24.7,-31.7,287.2,79.6,-55.3,0.0,45.17,12.84534,77.66346,,NaN,,800.0,,0 / 0,3569,2017-10-05 18:50:46:506
-1.233,-11.899,3.897,1.654,-9.623,0.912,-2.867,-2.085,2.922,-49.3,-19.7,-53.4,8.529,33.8,24.7,-31.7,287.2,79.6,-55.3,0.0,45.17,12.84534,77.66346,,NaN,,800.0,,0 / 0,3577,2017-10-05 18:50:46:514
-4.456,-10.979,4.618,1.809,-9.603,0.821,-6.194,-1.2,3.723,-53.6,-109.8,-19.4,8.529,33.6,25.5,-31.2,287.2,79.6,-55.3,0.0,45.17,12.84534,77.66346,,NaN,,800.0,,0 / 0,3587,2017-10-05 18:50:46:524
-4.456,-10.979,4.618,1.809,-9.603,0.821,-6.194,-1.2,3.723,-45.6,-198.2,39.4,8.529,33.6,25.5,-31.2,287.2,79.6,-55.3,0.0,45.17,12.84534,77.66346,,NaN,,800.0,,0 / 0,3597,2017-10-05 18:50:46:534
-5.15,-8.304,5.255,1.856,-9.607,0.656,-6.194,-1.2,3.723,-45.6,-198.2,39.4,8.529,33.2,26.6,-30.2,299.1,78.3,-65.6,0.0,45.17,12.84534,77.66346,,NaN,,800.0,,0 / 0,3607,2017-10-05 18:50:46:544
-5.15,-8.304,5.255,1.856,-9.607,0.656,-6.923,1.436,4.515,9.6,-245.7,97.9,8.529,33.2,26.6,-30.2,299.1,78.3,-65.6,0.0,45.17,12.84534,77.66346,,NaN,,800.0,,0 / 0,3617,2017-10-05 18:50:46:554
-3.08,-6.9,4.613,1.587,-9.654,0.679,-4.617,2.865,3.86,9.6,-245.7,97.9,8.529,32.9,27.7,-29.8,299.1,78.3,-65.6,0.0,45.17,12.84534,77.66346,,NaN,,800.0,,0 / 0,3627,2017-10-05 18:50:46:564
-3.08,-6.9,4.613,1.587,-9.654,0.679,-4.617,2.865,3.86,76.8,-190.6,150.9,8.529,32.9,27.7,-29.8,299.1,78.3,-65.6,0.0,45.17,12.84534,77.66346,,NaN,,800.0,,0 / 0,3637,2017-10-05 18:50:46:574
-2.086,-8.034,0.983,1.446,-9.667,0.789,-3.499,1.763,0.178,76.8,-190.6,150.9,8.529,32.3,29.0,-29.4,299.1,78.3,-65.6,0.0,45.17,12.84534,77.66346,,NaN,,800.0,,0 / 0,3647,2017-10-05 18:50:46:584
-0.126,-8.775,-1.161,0.828,-9.675,1.368,-0.952,1.041,-2.51,111.6,-72.8,202.0,8.529,31.7,29.4,-29.2,294.8,80.3,-61.4,0.0,45.17,12.84534,77.66346,,NaN,,800.0,,0 / 0,3657,2017-10-05 18:50:46:594
-0.126,-8.775,-1.161,0.828,-9.675,1.368,-0.952,1.041,-2.51,111.6,-72.8,202.0,8.529,31.7,29.4,-29.2,294.8,80.3,-61.4,0.0,45.17,12.84534,77.66346,,NaN,,800.0,,0 / 0,3667,2017-10-05 18:50:46:604
1.385,-9.319,-3.504,0.336,-9.657,1.674,1.027,0.487,-5.122,96.7,-13.4,202.0,8.529,31.2,29.1,-29.6,294.8,80.3,-61.4,0.0,45.17,12.84534,77.66346,,NaN,,800.0,,0 / 0,3677,2017-10-05 18:50:46:614
1.385,-9.319,-3.504,0.336,-9.657,1.674,1.027,0.487,-5.122,32.2,-24.1,125.6,8.529,31.2,29.1,-29.6,294.8,80.3,-61.4,0.0,45.17,12.84534,77.66346,,NaN,,800.0,,0 / 0,3687,2017-10-05 18:50:46:624
0.36,-10.735,-2.669,-0.032,-9.634,1.832,0.386,-0.929,-4.458,-33.6,-43.8,46.2,8.529,30.9,28.5,-30.0,243.7,80.0,-11.3,0.0,45.17,12.84534,77.66346,,NaN,,800.0,,0 / 0,3699,2017-10-05 18:50:46:636
0.36,-10.735,-2.669,-0.032,-9.634,1.832,0.386,-0.929,-4.458,-33.6,-43.8,46.2,8.529,30.9,28.5,-30.0,243.7,80.0,-11.3,0.0,45.17,12.84534,77.66346,,NaN,,800.0,,0 / 0,3707,2017-10-05 18:50:46:644
0.36,-10.735,-2.669,-0.032,-9.634,1.832,0.386,-0.929,-4.458,-33.6,-43.8,46.2,8.529,30.9,28.5,-30.0,243.7,80.0,-11.3,0.0,45.17,12.84534,77.66346,,NaN,,800.0,,0 / 0,3717,2017-10-05 18:50:46:654
-0.512,-11.605,-1.738,-0.152,-9.687,1.521,-0.352,-1.732,-3.231,-72.1,-30.8,39.3,8.529,30.8,27.7,-30.8,243.7,80.0,-11.3,0.0,45.17,12.84534,77.66346,,NaN,,800.0,,0 / 0,3727,2017-10-05 18:50:46:664
-0.482,-10.113,-1.539,-0.407,-9.734,1.119,-0.067,-0.217,-2.634,-93.2,14.5,33.4,8.529,30.6,26.9,-31.9,222.4,81.0,5.7,0.0,45.17,12.84534,77.66346,,NaN,,800.0,,0 / 0,3737,2017-10-05 18:50:46:674
-0.482,-10.113,-1.539,-0.407,-9.734,1.119,-0.067,-0.217,-2.634,-103.6,59.9,29.0,8.529,30.6,26.9,-31.9,222.4,81.0,5.7,0.0,45.17,12.84534,77.66346,,NaN,,800.0,,0 / 0,3746,2017-10-05 18:50:46:683
-1.043,-8.715,-0.592,-0.522,-9.775,0.596,-0.504,1.199,-1.178,-103.6,59.9,29.0,8.529,30.6,25.8,-33.1,222.4,81.0,5.7,0.0,45.17,12.84534,77.66346,,NaN,,800.0,,0 / 0,3757,2017-10-05 18:50:46:694
-1.043,-8.715,-0.592,-0.522,-9.775,0.596,-0.504,1.199,-1.178,-103.6,59.9,29.0,8.529,30.6,25.8,-33.1,222.4,81.0,5.7,0.0,45.17,12.84534,77.66346,,NaN,,800.0,,0 / 0,3767,2017-10-05 18:50:46:704
-1.787,-8.709,0.077,-0.611,-9.787,0.063,-1.147,1.218,0.012,-113.2,73.1,22.7,6.397,30.7,24.5,-33.8,181.2,85.4,41.2,0.0,45.17,12.84534,77.66346,,NaN,,800.0,,0 / 0,3778,2017-10-05 18:50:46:715
-1.787,-8.709,0.077,-0.611,-9.787,0.063,-1.147,1.218,0.012,-113.2,73.1,22.7,6.397,30.7,24.5,-33.8,181.2,85.4,41.2,0.0,45.17,12.84534,77.66346,,NaN,,800.0,,0 / 0,3787,2017-10-05 18:50:46:724
-1.787,-9.751,4.438,-0.611,-9.787,0.063,-1.147,1.218,4.699,-113.2,73.1,22.7,6.397,31.0,23.3,-34.2,181.2,85.4,41.2,0.0,44.62,12.84534,77.66346,,NaN,,800.0,,0 / 0,3798,2017-10-05 18:50:46:735
-1.934,-9.751,4.438,-0.709,-9.775,-0.332,-1.193,0.181,4.699,-94.5,-8.3,31.5,6.397,31.0,23.3,-34.2,181.2,85.4,41.2,0.0,44.62,12.84534,77.66346,,NaN,,800.0,,0 / 0,3807,2017-10-05 18:50:46:744
1.092,-8.604,3.495,-0.828,-9.75,-0.645,1.903,1.284,4.083,-63.9,-99.5,42.0,6.397,31.7,22.7,-34.2,105.9,85.4,115.1,0.0,44.62,12.84534,77.66346,,NaN,,800.0,,0 / 0,3817,2017-10-05 18:50:46:754
1.092,-8.604,3.495,-0.828,-9.75,-0.645,1.903,1.284,4.083,-63.9,-99.5,42.0,6.397,31.7,22.7,-34.2,105.9,85.4,115.1,0.0,44.62,12.84534,77.66346,,NaN,,800.0,,0 / 0,3827,2017-10-05 18:50:46:764
0.852,-8.043,1.129,-0.949,-9.728,-0.801,1.787,1.814,1.912,-49.6,-73.3,16.4,6.397,32.3,22.4,-33.7,105.9,85.4,115.1,0.0,44.62,12.84534,77.66346,,NaN,,800.0,,0 / 0,3838,2017-10-05 18:50:46:775
0.852,-8.043,1.129,-0.949,-9.728,-0.801,1.787,1.814,1.912,-49.6,-73.3,16.4,6.397,32.3,22.4,-33.7,105.9,85.4,115.1,0.0,44.62,12.84534,77.66346,,NaN,,800.0,,0 / 0,3847,2017-10-05 18:50:46:784
0.852,-8.043,1.129,-0.949,-9.728,-0.801,1.787,1.814,1.912,-41.5,21.0,-0.7,6.397,32.3,22.4,-33.7,91.4,82.7,130.1,0.0,44.62,12.84534,77.66346,,NaN,,800.0,,0 / 0,3857,2017-10-05 18:50:46:794
-1.633,-7.36,-0.553,-0.957,-9.727,-0.795,-0.649,2.485,0.251,-28.5,33.7,3.2,6.397,32.8,22.3,-33.5,91.4,82.7,130.1,0.0,44.62,12.84534,77.66346,,NaN,,800.0,,0 / 0,3867,2017-10-05 18:50:46:804
-1.633,-7.36,-0.553,-0.957,-9.727,-0.795,-0.649,2.485,0.251,-28.5,33.7,3.2,6.397,32.8,22.9,-32.8,91.4,82.7,130.1,0.0,44.62,12.84534,77.66346,,NaN,,800.0,,0 / 0,3877,2017-10-05 18:50:46:814
-2.44,-9.987,-1.012,-0.991,-9.727,-0.762,-1.41,-0.1,-0.234,-18.2,-6.0,5.2,6.397,32.8,22.9,-32.8,91.4,82.7,130.1,0.0,44.62,12.84534,77.66346,,NaN,,800.0,,0 / 0,3890,2017-10-05 18:50:46:827
-1.497,-11.411,-2.107,-0.989,-9.729,-0.74,-0.484,-1.499,-1.334,-18.2,-6.0,5.2,6.397,33.1,23.3,-32.1,94.6,82.7,127.6,0.0,44.62,12.84534,77.66346,,NaN,,800.0,,0 / 0,3898,2017-10-05 18:50:46:835
-1.497,-11.411,-2.107,-0.989,-9.729,-0.74,-0.484,-1.499,-1.334,-20.2,-38.9,-9.7,6.397,33.1,23.3,-32.1,94.6,82.7,127.6,0.0,44.62,12.84534,77.66346,,NaN,,800.0,,0 / 0,3907,2017-10-05 18:50:46:844
-1.5,-10.716,-2.259,-0.956,-9.723,-0.849,-0.52,-0.821,-1.374,-20.2,-38.9,-9.7,6.397,33.2,23.8,-31.5,94.6,82.7,127.6,0.0,44.62,12.84534,77.66346,,NaN,,800.0,,0 / 0,3917,2017-10-05 18:50:46:854
-1.5,-10.716,-2.259,-0.956,-9.723,-0.849,-0.52,-0.821,-1.374,-26.1,-27.8,-23.7,6.397,33.2,23.8,-31.5,94.6,82.7,127.6,0.0,44.62,12.84534,77.66346,,NaN,,800.0,,0 / 0,3928,2017-10-05 18:50:46:865
-1.732,-9.643,-2.624,-0.892,-9.718,-0.965,-0.812,0.23,-1.617,-31.9,3.9,-31.7,6.397,33.1,24.4,-31.0,91.2,82.5,131.6,0.0,44.62,12.84534,77.66346,,NaN,,800.0,,0 / 0,3938,2017-10-05 18:50:46:875
-1.732,-9.643,-2.624,-0.892,-9.718,-0.965,-0.812,0.23,-1.617,-31.9,3.9,-31.7,6.397,33.1,24.4,-31.0,91.2,82.5,131.6,0.0,44.62,12.84534,77.66346,,NaN,,800.0,,0 / 0,3947,2017-10-05 18:50:46:884
-2.709,-8.282,-3.605,-0.766,-9.71,-1.136,-1.9,1.561,-2.41,-31.9,3.9,-31.7,6.397,33.2,24.8,-30.6,91.2,82.5,131.6,0.0,44.62,12.84534,77.66346,,NaN,,800.0,,0 / 0,3958,2017-10-05 18:50:46:895
-2.709,-8.282,-3.605,-0.766,-9.71,-1.136,-1.9,1.561,-2.41,-34.2,44.1,-37.8,6.397,33.2,24.8,-30.6,91.2,82.5,131.6,0.0,44.62,12.84534,77.66346,,NaN,,800.0,,0 / 0,3967,2017-10-05 18:50:46:904
-2.709,-8.282,-3.605,-0.766,-9.71,-1.136,-1.9,1.561,-2.41,-37.3,107.5,-46.1,6.397,33.2,24.8,-30.6,91.2,82.5,131.6,0.0,44.62,12.84534,77.66346,,NaN,,800.0,,0 / 0,3977,2017-10-05 18:50:46:914
-5.56,-7.347,-4.727,-0.601,-9.699,-1.317,-4.87,2.47,-3.333,-18.5,207.8,-31.7,6.397,32.8,25.1,-30.3,77.4,82.0,146.0,0.0,44.62,12.84534,77.66346,,NaN,,800.0,,0 / 0,3987,2017-10-05 18:50:46:924
-5.56,-7.347,-4.727,-0.601,-9.699,-1.317,-4.87,2.47,-3.333,-18.5,207.8,-31.7,6.397,32.8,25.1,-30.3,77.4,82.0,146.0,0.0,44.62,12.84534,77.66346,,NaN,,800.0,,0 / 0,3997,2017-10-05 18:50:46:934
-5.236,-8.794,-2.129,-0.417,-9.68,-1.512,-4.735,1.027,-0.582,-18.5,207.8,-31.7,6.397,32.6,25.4,-30.1,77.4,82.0,146.0,0.0,44.62,12.84534,77.66346,,NaN,,800.0,,0 / 0,4007,2017-10-05 18:50:46:944
-5.236,-8.794,-2.129,-0.417,-9.68,-1.512,-4.735,1.027,-0.582,-1.8,124.0,-13.1,6.397,32.6,25.4,-30.1,77.4,82.0,146.0,0.0,44.62,12.84534,77.66346,,NaN,,800.0,,0 / 0,4017,2017-10-05 18:50:46:954
0.307,-10.171,2.679,-0.353,-9.661,-1.645,0.656,-0.346,4.281,-5.2,-104.2,-19.0,6.397,32.8,26.2,-29.2,59.7,80.8,164.6,0.0,44.62,12.84534,77.66346,,NaN,,800.0,,0 / 0,4028,2017-10-05 18:50:46:965
0.307,-10.171,2.679,-0.353,-9.661,-1.645,0.656,-0.346,4.281,-5.2,-104.2,-19.0,6.397,32.8,26.2,-29.2,59.7,80.8,164.6,0.0,44.62,12.84534,77.66346,,NaN,,800.0,,0 / 0,4037,2017-10-05 18:50:46:974
-1.983,-8.622,4.672,-0.28,-9.656,-1.692,-1.671,1.172,6.288,13.2,-165.0,-13.4,6.397,32.8,26.6,-28.5,59.7,80.8,164.6,0.0,44.62,12.84534,77.66346,,NaN,,800.0,,0 / 0,4047,2017-10-05 18:50:46:984
-2.988,-8.603,3.722,-0.32,-9.677,-1.559,-2.62,1.212,5.221,24.3,-97.4,8.7,6.397,32.9,26.9,-28.1,54.4,79.9,170.6,0.0,44.62,12.84534,77.66346,,NaN,,800.0,,0 / 0,4058,2017-10-05 18:50:46:995
-2.988,-8.603,3.722,-0.32,-9.677,-1.559,-2.62,1.212,5.221,24.3,-97.4,8.7,6.397,32.9,26.9,-28.1,54.4,79.9,170.6,0.0,44.62,12.84534,77.66346,,NaN,,800.0,,0 / 0,4067,2017-10-05 18:50:47:004
-2.988,-8.603,3.722,-0.32,-9.677,-1.559,-2.62,1.212,5.221,37.9,-44.1,25.4,6.397,32.9,26.9,-28.1,54.4,79.9,170.6,0.0,44.62,12.84534,77.66346,,NaN,,800.0,,0 / 0,4077,2017-10-05 18:50:47:014
-0.97,-9.874,1.495,-0.404,-9.723,-1.211,-0.551,0.008,2.682,37.9,-44.1,25.4,6.397,32.7,27.3,-28.0,54.4,79.9,170.6,0.0,44.62,12.84534,77.66346,,NaN,,800.0,,0 / 0,4087,2017-10-05 18:50:47:024
-0.97,-9.874,1.495,-0.404,-9.723,-1.211,-0.551,0.008,2.682,47.8,-28.4,16.1,6.397,32.7,27.3,-28.0,54.4,79.9,170.6,0.0,44.62,12.84534,77.66346,,NaN,,800.0,,0 / 0,4097,2017-10-05 18:50:47:034
-0.178,-10.043,-1.203,-0.422,-9.765,-0.799,0.246,-0.117,-0.385,47.8,-28.4,16.1,6.397,32.7,27.5,-27.8,64.1,82.5,161.6,0.0,47.16,12.84534,77.66346,,NaN,,800.0,,0 / 0,4107,2017-10-05 18:50:47:044
-0.178,-10.043,-1.203,-0.422,-9.765,-0.799,0.246,-0.117,-0.385,48.1,-23.1,3.6,6.397,32.7,27.5,-27.8,64.1,82.5,161.6,0.0,47.16,12.84534,77.66346,,NaN,,800.0,,0 / 0,4117,2017-10-05 18:50:47:054
-3.049,-9.042,-2.788,-0.462,-9.786,-0.445,-2.537,0.889,-2.298,51.8,-12.3,-1.6,7.463,32.7,27.5,-27.7,64.1,82.5,161.6,0.0,47.16,12.84534,77.66346,,NaN,,800.0,,0 / 0,4127,2017-10-05 18:50:47:064
-3.049,-9.042,-2.788,-0.462,-9.786,-0.445,-2.537,0.889,-2.298,51.8,-12.3,-1.6,7.463,32.7,27.5,-27.7,64.1,82.5,161.6,0.0,47.16,12.84534,77.66346,,NaN,,800.0,,0 / 0,4137,2017-10-05 18:50:47:074
-3.433,-10.179,-2.046,-0.451,-9.796,-0.121,-2.927,-0.22,-1.892,73.0,2.9,-4.5,7.463,32.9,27.5,-27.6,93.4,86.2,133.9,0.0,47.16,12.84534,77.66346,,NaN,,800.0,,0 / 0,4147,2017-10-05 18:50:47:084
-3.433,-10.179,-2.046,-0.451,-9.796,-0.121,-2.927,-0.22,-1.892,101.7,30.8,6.3,7.463,32.9,27.5,-27.6,93.4,86.2,133.9,0.0,47.16,12.84534,77.66346,,NaN,,800.0,,0 / 0,4157,2017-10-05 18:50:47:094
-4.068,-9.311,-0.606,-0.47,-9.795,0.021,-3.532,0.634,-0.617,101.7,30.8,6.3,7.463,32.7,27.4,-27.8,93.4,86.2,133.9,0.0,47.16,12.84534,77.66346,,NaN,,800.0,,0 / 0,4167,2017-10-05 18:50:47:104
-4.068,-9.311,-0.606,-0.47,-9.795,0.021,-3.532,0.634,-0.617,102.1,83.0,52.7,7.463,32.7,27.4,-27.8,93.4,86.2,133.9,0.0,47.16,12.84534,77.66346,,NaN,,800.0,,0 / 0,4177,2017-10-05 18:50:47:114
-3.278,-9.479,-1.092,-0.556,-9.789,0.212,-2.67,0.461,-1.287,102.1,83.0,52.7,7.463,32.4,26.8,-28.6,139.2,87.3,87.5,0.0,47.16,12.84534,77.66346,,NaN,,800.0,,0 / 0,4187,2017-10-05 18:50:47:124
-3.278,-9.479,-1.092,-0.556,-9.789,0.212,-2.67,0.461,-1.287,74.4,173.3,94.6,7.463,32.4,26.8,-28.6,139.2,87.3,87.5,0.0,47.16,12.84534,77.66346,,NaN,,800.0,,0 / 0,4197,2017-10-05 18:50:47:134
2.507,-7.735,2.402,-0.892,-9.76,0.336,3.358,2.15,2.027,74.4,173.3,94.6,7.463,32.3,26.4,-29.4,139.2,87.3,87.5,0.0,47.16,12.84534,77.66346,,NaN,,800.0,,0 / 0,4207,2017-10-05 18:50:47:144
4.365,-10.179,2.813,-1.116,-9.729,0.515,5.411,-0.286,2.253,78.3,253.6,61.6,7.463,32.4,25.3,-29.7,156.1,84.4,69.4,0.0,47.16,12.84534,77.66346,,NaN,,800.0,,0 / 0,4218,2017-10-05 18:50:47:155
4.365,-10.179,2.813,-1.116,-9.729,0.515,5.411,-0.286,2.253,78.3,253.6,61.6,7.463,32.4,25.3,-29.7,156.1,84.4,69.4,0.0,47.16,12.84534,77.66346,,NaN,,800.0,,0 / 0,4227,2017-10-05 18:50:47:164
4.365,-10.179,2.813,-1.116,-9.729,0.515,5.411,-0.286,2.253,78.3,253.6,61.6,7.463,32.4,25.3,-29.7,156.1,84.4,69.4,0.0,47.16,12.84534,77.66346,,NaN,,800.0,,0 / 0,4237,2017-10-05 18:50:47:174
2.217,-8.15,1.731,-1.309,-9.701,0.597,3.491,1.682,1.106,10.0,182.7,-2.7,7.463,33.2,24.1,-29.5,156.1,84.4,69.4,0.0,47.16,12.84534,77.66346,,NaN,,800.0,,0 / 0,4247,2017-10-05 18:50:47:184
2.217,-8.15,1.731,-1.309,-9.701,0.597,3.491,1.682,1.106,-0.2,144.3,-34.8,7.463,33.2,24.1,-29.5,156.1,84.4,69.4,0.0,47.16,12.84534,77.66346,,NaN,,800.0,,0 / 0,4257,2017-10-05 18:50:47:194
-2.198,-11.694,2.66,-1.294,-9.7,0.636,-0.869,-1.807,1.981,15.5,140.9,-31.8,7.463,34.1,23.0,-29.4,164.4,81.5,63.8,0.0,47.16,12.84534,77.66346,,NaN,,800.0,,0 / 0,4268,2017-10-05 18:50:47:205
-2.198,-11.694,2.66,-1.294,-9.7,0.636,-0.869,-1.807,1.981,15.5,140.9,-31.8,7.463,34.1,23.0,-29.4,164.4,81.5,63.8,0.0,47.16,12.84534,77.66346,,NaN,,800.0,,0 / 0,4277,2017-10-05 18:50:47:214
-5.195,-10.939,-0.469,-1.409,-9.672,0.8,-3.703,-1.091,-1.261,7.0,111.7,-9.2,9.595,35.0,22.1,-28.6,164.4,81.5,63.8,0.0,47.16,12.84534,77.66346,,NaN,,800.0,,0 / 0,4288,2017-10-05 18:50:47:225
-5.195,-10.939,-0.469,-1.409,-9.672,0.8,-3.703,-1.091,-1.261,7.0,111.7,-9.2,9.595,35.0,22.1,-28.6,164.4,81.5,63.8,0.0,47.16,12.84534,77.66346,,NaN,,800.0,,0 / 0,4297,2017-10-05 18:50:47:234
-5.651,-10.787,-2.245,-1.373,-9.674,0.831,-4.187,-0.939,-3.039,7.0,111.7,-9.2,9.595,36.2,21.4,-28.0,170.9,80.5,60.4,0.0,47.16,12.84534,77.66346,,NaN,,800.0,,0 / 0,4307,2017-10-05 18:50:47:244
-5.651,-10.787,-2.245,-1.373,-9.674,0.831,-4.187,-0.939,-3.039,-2.2,75.7,17.1,9.595,36.2,21.4,-28.0,170.9,80.5,60.4,0.0,47.16,12.84534,77.66346,,NaN,,800.0,,0 / 0,4317,2017-10-05 18:50:47:254
-3.424,-10.186,-1.772,-1.471,-9.657,0.863,-1.899,-0.365,-2.607,-2.6,65.6,25.0,9.595,37.3,20.7,-26.8,170.9,80.5,60.4,0.0,47.16,12.84534,77.66346,,NaN,,800.0,,0 / 0,4327,2017-10-05 18:50:47:264
-1.484,-9.247,0.471,-1.471,-9.664,0.777,0.011,0.565,-0.313,-2.6,65.6,25.0,9.595,37.3,20.7,-26.8,170.9,80.5,60.4,0.0,47.16,12.84534,77.66346,,NaN,,800.0,,0 / 0,4337,2017-10-05 18:50:47:274
-1.484,-9.247,0.471,-1.471,-9.664,0.777,0.011,0.565,-0.313,13.3,76.6,33.4,9.595,37.3,20.7,-26.8,170.9,80.5,60.4,0.0,47.16,12.84534,77.66346,,NaN,,800.0,,0 / 0,4347,2017-10-05 18:50:47:284
-1.122,-8.427,2.172,-1.599,-9.654,0.639,0.495,1.363,1.498,-5.7,47.2,49.3,9.595,38.5,20.3,-25.1,174.7,80.2,62.2,0.0,47.16,12.84534,77.66346,,NaN,,800.0,,0 / 0,4357,2017-10-05 18:50:47:294
-1.122,-8.427,2.172,-1.599,-9.654,0.639,0.495,1.363,1.498,-5.7,47.2,49.3,9.595,38.5,20.3,-25.1,174.7,80.2,62.2,0.0,47.16,12.84534,77.66346,,NaN,,800.0,,0 / 0,4367,2017-10-05 18:50:47:304
0.923,-9.21,1.497,-1.756,-9.637,0.459,2.665,0.575,1.014,-5.7,47.2,49.3,9.595,39.5,19.5,-23.5,174.7,80.2,62.2,0.0,47.16,12.84534,77.66346,,NaN,,800.0,,0 / 0,4377,2017-10-05 18:50:47:314
0.923,-9.21,1.497,-1.756,-9.637,0.459,2.665,0.575,1.014,-1.0,-4.1,12.0,9.595,39.5,19.5,-23.5,174.7,80.2,62.2,0.0,47.16,12.84534,77.66346,,NaN,,800.0,,0 / 0,4388,2017-10-05 18:50:47:325
-2.964,-8.287,0.642,-1.806,-9.626,0.497,-1.111,1.472,0.135,16.7,-72.5,-3.6,9.595,40.7,19.3,-22.1,165.1,79.3,75.3,0.0,47.16,12.84534,77.66346,,NaN,,800.0,,0 / 0,4398,2017-10-05 18:50:47:335
-2.964,-8.287,0.642,-1.806,-9.626,0.497,-1.111,1.472,0.135,32.5,-102.8,-0.2,9.595,40.7,19.3,-22.1,165.1,79.3,75.3,0.0,47.16,12.84534,77.66346,,NaN,,800.0,,0 / 0,4408,2017-10-05 18:50:47:345
-4.261,-8.927,-1.218,-1.779,-9.617,0.719,-2.414,0.833,-1.917,32.5,-102.8,-0.2,9.595,41.2,19.4,-20.7,165.1,79.3,75.3,0.0,47.16,12.84534,77.66346,,NaN,,800.0,,0 / 0,4417,2017-10-05 18:50:47:354
-4.261,-8.927,-1.218,-1.779,-9.617,0.719,-2.414,0.833,-1.917,15.7,-108.2,17.2,9.595,41.2,19.4,-20.7,165.1,79.3,75.3,0.0,47.16,12.84534,77.66346,,NaN,,800.0,,0 / 0,4427,2017-10-05 18:50:47:364
-4.094,-10.392,-2.766,-1.81,-9.603,0.82,-2.218,-0.622,-3.541,15.7,-108.2,17.2,9.595,41.9,19.6,-19.0,177.4,78.7,68.0,0.0,51.28,12.84534,77.66346,,NaN,,800.0,,0 / 0,4438,2017-10-05 18:50:47:375
-4.094,-10.392,-2.766,-1.81,-9.603,0.82,-2.218,-0.622,-3.541,-19.8,-82.1,18.0,9.595,41.9,19.6,-19.0,177.4,78.7,68.0,0.0,51.28,12.84534,77.66346,,NaN,,800.0,,0 / 0,4447,2017-10-05 18:50:47:384
-3.288,-10.312,-3.61,-1.813,-9.598,0.873,-1.422,-0.548,-4.424,-49.0,-63.3,17.3,2.132,42.4,19.7,-18.4,177.4,78.7,68.0,0.0,51.28,12.84534,77.66346,,NaN,,800.0,,0 / 0,4458,2017-10-05 18:50:47:395
-3.288,-10.312,-3.61,-1.813,-9.598,0.873,-1.422,-0.548,-4.424,-49.0,-63.3,17.3,2.132,42.4,19.7,-18.4,177.4,78.7,68.0,0.0,51.28,12.84534,77.66346,,NaN,,800.0,,0 / 0,4468,2017-10-05 18:50:47:405
-3.614,-10.241,-2.788,-1.862,-9.606,0.658,-1.694,-0.471,-3.401,-60.8,-90.8,25.3,2.132,42.5,19.5,-17.9,182.8,78.2,64.3,0.0,51.28,12.84534,77.66346,,NaN,,800.0,,0 / 0,4477,2017-10-05 18:50:47:414
-3.614,-10.241,-2.788,-1.862,-9.606,0.658,-1.694,-0.471,-3.401,-60.8,-90.8,25.3,2.132,42.5,19.5,-17.9,182.8,78.2,64.3,0.0,51.28,12.84534,77.66346,,NaN,,800.0,,0 / 0,4488,2017-10-05 18:50:47:425
-5.326,-12.441,-1.056,-1.983,-9.597,0.367,-3.257,-2.644,-1.406,-65.6,-126.3,52.4,2.132,42.8,19.4,-18.2,182.8,78.2,64.3,0.0,51.28,12.84534,77.66346,,NaN,,800.0,,0 / 0,4498,2017-10-05 18:50:47:435
-5.326,-12.441,-1.056,-1.983,-9.597,0.367,-3.257,-2.644,-1.406,-65.6,-126.3,52.4,2.132,42.8,19.4,-18.2,182.8,78.2,64.3,0.0,51.28,12.84534,77.66346,,NaN,,800.0,,0 / 0,4507,2017-10-05 18:50:47:444
-1.879,-12.16,-0.263,-2.115,-9.576,0.034,0.266,-2.389,-0.293,-65.6,-126.3,52.4,2.132,43.2,19.3,-18.5,165.1,78.1,79.5,0.0,51.28,12.84534,77.66346,,NaN,,800.0,,0 / 0,4518,2017-10-05 18:50:47:455
-1.879,-12.16,-0.263,-2.115,-9.576,0.034,0.266,-2.389,-0.293,-84.3,-120.4,56.6,2.132,43.2,19.3,-18.5,165.1,78.1,79.5,0.0,51.28,12.84534,77.66346,,NaN,,800.0,,0 / 0,4527,2017-10-05 18:50:47:464
-0.208,-10.992,1.65,-2.298,-9.529,-0.282,2.093,-1.286,1.906,-78.6,-137.2,42.1,2.132,43.6,19.5,-19.0,165.1,78.1,79.5,0.0,51.28,12.84534,77.66346,,NaN,,800.0,,0 / 0,4537,2017-10-05 18:50:47:474
-0.208,-10.992,1.65,-2.298,-9.529,-0.282,2.093,-1.286,1.906,-45.1,-133.6,25.4,2.132,43.6,19.5,-19.0,165.1,78.1,79.5,0.0,51.28,12.84534,77.66346,,NaN,,800.0,,0 / 0,4548,2017-10-05 18:50:47:485
-0.098,-10.458,1.351,-2.414,-9.499,-0.342,2.317,-0.791,1.672,-45.1,-133.6,25.4,2.132,43.2,19.3,-20.0,144.1,76.3,97.0,0.0,51.28,12.84534,77.66346,,NaN,,800.0,,0 / 0,4557,2017-10-05 18:50:47:494
-0.098,-10.458,1.351,-2.414,-9.499,-0.342,2.317,-0.791,1.672,-12.2,-89.5,12.0,2.132,43.2,19.3,-20.0,144.1,76.3,97.0,0.0,51.28,12.84534,77.66346,,NaN,,800.0,,0 / 0,4567,2017-10-05 18:50:47:504
-0.377,-10.424,0.292,-2.521,-9.47,-0.368,2.151,-0.787,0.655,6.5,-30.6,0.8,2.132,42.9,19.0,-21.4,144.1,76.3,97.0,0.0,51.28,12.84534,77.66346,,NaN,,800.0,,0 / 0,4578,2017-10-05 18:50:47:515
-0.377,-10.424,0.292,-2.521,-9.47,-0.368,2.151,-0.787,0.655,6.5,-30.6,0.8,2.132,42.9,19.0,-21.4,144.1,76.3,97.0,0.0,51.28,12.84534,77.66346,,NaN,,800.0,,0 / 0,4587,2017-10-05 18:50:47:524
-0.16,-9.383,-0.977,-2.479,-9.485,-0.248,2.322,0.253,-0.714,7.6,11.7,-23.8,2.132,42.0,18.7,-23.0,138.0,74.9,98.3,0.0,51.28,12.84534,77.66346,,NaN,,800.0,,0 / 0,4598,2017-10-05 18:50:47:535
-0.16,-9.383,-0.977,-2.479,-9.485,-0.248,2.322,0.253,-0.714,7.6,11.7,-23.8,2.132,42.0,18.7,-23.0,138.0,74.9,98.3,0.0,51.28,12.84534,77.66346,,NaN,,800.0,,0 / 0,4607,2017-10-05 18:50:47:544
-0.332,-9.253,-0.795,-2.407,-9.505,-0.206,2.08,0.4,-0.576,4.4,22.0,-57.9,2.132,41.3,18.4,-24.4,138.0,74.9,98.3,0.0,51.28,12.84534,77.66346,,NaN,,800.0,,0 / 0,4618,2017-10-05 18:50:47:555
-0.332,-9.253,-0.795,-2.407,-9.505,-0.206,2.08,0.4,-0.576,0.3,8.6,-89.5,2.132,41.3,18.4,-24.4,138.0,74.9,98.3,0.0,51.28,12.84534,77.66346,,NaN,,800.0,,0 / 0,4627,2017-10-05 18:50:47:564
-1.183,-8.227,-0.643,-2.217,-9.55,-0.208,1.053,1.455,-0.425,0.3,8.6,-89.5,2.132,40.7,17.9,-25.9,138.3,75.7,94.9,0.0,51.28,12.84534,77.66346,,NaN,,800.0,,0 / 0,4637,2017-10-05 18:50:47:574
-1.183,-8.227,-0.643,-2.217,-9.55,-0.208,1.053,1.455,-0.425,-3.2,-15.7,-105.1,2.132,40.7,17.9,-25.9,138.3,75.7,94.9,0.0,51.28,12.84534,77.66346,,NaN,,800.0,,0 / 0,4647,2017-10-05 18:50:47:584
-2.964,-6.263,-0.175,-1.866,-9.624,-0.246,-1.05,3.461,0.074,-3.2,-15.7,-105.1,2.132,40.3,17.8,-26.7,138.3,75.7,94.9,0.0,51.28,12.84534,77.66346,,NaN,,800.0,,0 / 0,4657,2017-10-05 18:50:47:594
-2.964,-6.263,-0.175,-1.866,-9.624,-0.246,-1.05,3.461,0.074,35.0,7.1,-84.4,2.132,40.3,17.8,-26.7,138.3,75.7,94.9,0.0,51.28,12.84534,77.66346,,NaN,,800.0,,0 / 0,4667,2017-10-05 18:50:47:604
-5.376,-4.894,2.012,-1.659,-9.664,-0.162,-3.63,4.848,2.141,35.0,7.1,-84.4,2.132,39.4,18.0,-27.8,133.2,78.9,97.5,0.0,51.28,12.84534,77.66346,,NaN,,800.0,,0 / 0,4678,2017-10-05 18:50:47:615
-5.376,-4.894,2.012,-1.659,-9.664,-0.162,-3.63,4.848,2.141,73.1,73.1,-7.8,2.132,39.4,18.0,-27.8,133.2,78.9,97.5,0.0,51.28,12.84534,77.66346,,NaN,,800.0,,0 / 0,4687,2017-10-05 18:50:47:624
-6.04,-6.696,1.081,-1.621,-9.671,-0.095,-4.321,3.082,1.159,71.6,156.3,84.3,2.132,38.4,18.2,-28.7,133.2,78.9,97.5,0.0,51.28,12.84534,77.66346,,NaN,,800.0,,0 / 0,4698,2017-10-05 18:50:47:635
-6.04,-6.696,1.081,-1.621,-9.671,-0.095,-4.321,3.082,1.159,71.6,156.3,84.3,2.132,38.4,18.2,-28.7,133.2,78.9,97.5,0.0,51.28,12.84534,77.66346,,NaN,,800.0,,0 / 0,4707,2017-10-05 18:50:47:644
-2.232,-10.117,-0.429,-1.957,-9.609,-0.025,-0.239,-0.345,-0.397,42.3,237.9,116.5,2.132,38.0,18.5,-29.0,136.3,80.5,93.4,0.0,51.28,12.84534,77.66346,,NaN,,800.0,,0 / 0,4717,2017-10-05 18:50:47:654
-2.232,-10.117,-0.429,-1.957,-9.609,-0.025,-0.239,-0.345,-0.397,42.3,237.9,116.5,2.132,38.0,18.5,-29.0,136.3,80.5,93.4,0.0,51.28,12.84534,77.66346,,NaN,,800.0,,0 / 0,4727,2017-10-05 18:50:47:664
-0.695,-13.241,1.374,-2.023,-9.595,0.127,1.339,-3.433,1.225,29.2,170.9,36.2,2.132,37.7,18.7,-29.2,136.3,80.5,93.4,0.0,51.28,12.84534,77.66346,,NaN,,800.0,,0 / 0,4738,2017-10-05 18:50:47:675
-0.695,-13.241,1.374,-2.023,-9.595,0.127,1.339,-3.433,1.225,45.4,21.1,-34.2,2.132,37.7,18.7,-29.2,136.3,80.5,93.4,0.0,51.28,12.84534,77.66346,,NaN,,800.0,,0 / 0,4747,2017-10-05 18:50:47:684
-6.12,-11.858,0.758,-2.17,-9.562,0.187,-3.852,-2.106,0.559,45.4,21.1,-34.2,2.132,38.0,18.7,-28.8,142.8,78.1,86.4,0.0,54.45,12.84534,77.66346,,NaN,,800.0,,0 / 0,4757,2017-10-05 18:50:47:694
-6.12,-11.858,0.758,-2.17,-9.562,0.187,-3.852,-2.106,0.559,45.4,21.1,-34.2,2.132,38.0,18.7,-28.8,142.8,78.1,86.4,0.0,54.45,12.84534,77.66346,,NaN,,800.0,,0 / 0,4768,2017-10-05 18:50:47:705
-6.176,-8.89,-0.234,-2.113,-9.571,0.316,-3.964,0.824,-0.546,39.9,-34.0,-15.8,2.132,38.5,18.8,-27.8,142.8,78.1,86.4,0.0,54.45,12.84534,77.66346,,NaN,,800.0,,0 / 0,4776,2017-10-05 18:50:47:713
-4.034,-7.949,-0.454,-2.087,-9.575,0.361,-1.882,1.754,-0.808,13.6,-23.2,3.0,2.132,39.0,18.8,-26.9,142.8,78.1,86.4,0.0,54.45,12.84534,77.66346,,NaN,,800.0,,0 / 0,4787,2017-10-05 18:50:47:724
-4.034,-7.949,-0.454,-2.087,-9.575,0.361,-1.882,1.754,-0.808,-7.1,-23.6,11.6,6.397,39.0,18.8,-26.9,142.8,78.1,86.4,0.0,54.45,12.84534,77.66346,,NaN,,800.0,,0 / 0,4797,2017-10-05 18:50:47:734
-3.659,-8.384,0.099,-2.107,-9.567,0.439,-1.492,1.318,-0.341,-7.1,-23.6,11.6,6.397,39.4,19.0,-26.2,153.3,77.5,80.2,0.0,54.45,12.84534,77.66346,,NaN,,800.0,,0 / 0,4807,2017-10-05 18:50:47:744
-3.659,-8.384,0.099,-2.107,-9.567,0.439,-1.492,1.318,-0.341,-13.2,-48.1,17.1,6.397,39.4,19.0,-26.2,153.3,77.5,80.2,0.0,54.45,12.84534,77.66346,,NaN,,800.0,,0 / 0,4817,2017-10-05 18:50:47:754
-3.15,-9.047,0.392,-2.111,-9.565,0.481,-0.988,0.663,-0.095,-13.2,-48.1,17.1,6.397,40.0,18.5,-25.4,153.3,77.5,80.2,0.0,54.45,12.84534,77.66346,,NaN,,800.0,,0 / 0,4827,2017-10-05 18:50:47:764
-3.15,-9.047,0.392,-2.111,-9.565,0.481,-0.988,0.663,-0.095,-13.1,-70.6,18.0,6.397,40.0,18.5,-25.4,153.3,77.5,80.2,0.0,54.45,12.84534,77.66346,,NaN,,800.0,,0 / 0,4837,2017-10-05 18:50:47:774
-2.996,-9.514,0.466,-2.155,-9.556,0.459,-0.793,0.194,0.0,-13.1,-70.6,18.0,6.397,40.5,17.8,-25.1,159.3,77.2,77.2,0.0,54.45,12.84534,77.66346,,NaN,,800.0,,0 / 0,4847,2017-10-05 18:50:47:784
-2.996,-9.514,0.466,-2.155,-9.556,0.459,-0.793,0.194,0.0,-12.5,-76.0,20.2,6.397,40.5,17.8,-25.1,159.3,77.2,77.2,0.0,54.45,12.84534,77.66346,,NaN,,800.0,,0 / 0,4857,2017-10-05 18:50:47:794
-2.318,-9.767,0.588,-2.215,-9.542,0.461,-0.066,-0.068,0.118,-12.5,-76.0,20.2,6.397,40.9,17.3,-24.7,159.3,77.2,77.2,0.0,54.45,12.84534,77.66346,,NaN,,800.0,,0 / 0,4867,2017-10-05 18:50:47:804
-2.318,-9.767,0.588,-2.215,-9.542,0.461,-0.066,-0.068,0.118,-10.4,-68.9,21.6,6.397,40.9,17.3,-24.7,159.3,77.2,77.2,0.0,54.45,12.84534,77.66346,,NaN,,800.0,,0 / 0,4877,2017-10-05 18:50:47:814
-1.934,-9.634,0.669,-2.266,-9.529,0.48,0.363,0.05,0.178,-5.6,-56.6,18.6,6.397,41.3,17.0,-24.6,158.2,76.3,78.0,0.0,54.45,12.84534,77.66346,,NaN,,800.0,,0 / 0,4887,2017-10-05 18:50:47:824
-1.934,-9.634,0.669,-2.266,-9.529,0.48,0.363,0.05,0.178,1.6,-42.4,14.2,6.397,41.3,17.0,-24.6,158.2,76.3,78.0,0.0,54.45,12.84534,77.66346,,NaN,,800.0,,0 / 0,4897,2017-10-05 18:50:47:834
-1.831,-9.508,0.639,-2.316,-9.515,0.513,0.514,0.16,0.115,1.6,-42.4,14.2,6.397,41.2,16.6,-25.0,158.2,76.3,78.0,0.0,54.45,12.84534,77.66346,,NaN,,800.0,,0 / 0,4907,2017-10-05 18:50:47:844
-1.831,-9.508,0.639,-2.316,-9.515,0.513,0.514,0.16,0.115,1.6,-42.4,14.2,6.397,41.2,16.6,-25.0,158.2,76.3,78.0,0.0,54.45,12.84534,77.66346,,NaN,,800.0,,0 / 0,4917,2017-10-05 18:50:47:854
-1.854,-9.515,0.472,-2.342,-9.506,0.565,0.518,0.143,-0.1,7.6,-27.0,9.4,6.397,40.7,16.6,-26.0,157.7,76.0,77.5,0.0,54.45,12.84534,77.66346,,NaN,,800.0,,0 / 0,4927,2017-10-05 18:50:47:864
-1.854,-9.515,0.472,-2.342,-9.506,0.565,0.518,0.143,-0.1,7.6,-27.0,9.4,6.397,40.7,16.6,-26.0,157.7,76.0,77.5,0.0,54.45,12.84534,77.66346,,NaN,,800.0,,0 / 0,4938,2017-10-05 18:50:47:875
-1.99,-9.475,0.273,-2.367,-9.497,0.606,0.408,0.175,-0.338,9.9,-13.0,4.3,6.397,40.1,16.3,-26.5,157.7,76.0,77.5,0.0,54.45,12.84534,77.66346,,NaN,,800.0,,0 / 0,4947,2017-10-05 18:50:47:884
-1.99,-9.475,0.273,-2.367,-9.497,0.606,0.408,0.175,-0.338,9.9,-13.0,4.3,6.397,40.1,16.3,-26.5,157.7,76.0,77.5,0.0,54.45,12.84534,77.66346,,NaN,,800.0,,0 / 0,4957,2017-10-05 18:50:47:894
-2.893,-9.471,0.154,-2.374,-9.493,0.637,-0.472,0.174,-0.485,2.8,-3.6,-2.8,2.132,39.8,15.8,-26.9,157.9,75.6,75.6,0.0,54.45,12.84534,77.66346,,NaN,,800.0,,0 / 0,4967,2017-10-05 18:50:47:904
-2.893,-9.471,0.154,-2.374,-9.493,0.637,-0.472,0.174,-0.485,2.8,-3.6,-2.8,2.132,39.8,15.8,-26.9,157.9,75.6,75.6,0.0,54.45,12.84534,77.66346,,NaN,,800.0,,0 / 0,4978,2017-10-05 18:50:47:915
-3.302,-9.441,0.219,-2.363,-9.497,0.634,-0.886,0.207,-0.419,-2.9,-3.7,-3.6,2.132,39.4,15.4,-27.5,157.9,75.6,75.6,0.0,54.45,12.84534,77.66346,,NaN,,800.0,,0 / 0,4987,2017-10-05 18:50:47:924
-3.302,-9.441,0.219,-2.363,-9.497,0.634,-0.886,0.207,-0.419,-7.3,-3.8,-2.7,2.132,39.4,15.4,-27.5,157.9,75.6,75.6,0.0,54.45,12.84534,77.66346,,NaN,,800.0,,0 / 0,4997,2017-10-05 18:50:47:934
-3.576,-9.385,0.337,-2.36,-9.508,0.44,-1.158,0.274,-0.108,-7.3,-3.8,-2.7,2.132,39.5,15.4,-27.7,156.9,75.6,75.0,0.0,54.45,12.84534,77.66346,,NaN,,800.0,,0 / 0,5007,2017-10-05 18:50:47:944
-3.606,-9.218,0.453,-2.359,-9.513,0.325,-1.189,0.444,0.121,-7.3,-3.8,-2.7,2.132,39.5,15.4,-27.7,156.9,75.6,75.0,0.0,54.45,12.84534,77.66346,,NaN,,800.0,,0 / 0,5017,2017-10-05 18:50:47:954
-3.606,-9.218,0.453,-2.359,-9.513,0.325,-1.189,0.444,0.121,-9.9,-4.3,-1.5,2.132,39.5,15.4,-27.7,156.9,75.6,75.0,0.0,54.45,12.84534,77.66346,,NaN,,800.0,,0 / 0,5027,2017-10-05 18:50:47:964
-3.459,-9.009,0.505,-2.354,-9.516,0.268,-1.05,0.651,0.229,-10.7,-4.2,-0.4,2.132,39.2,15.2,-28.3,156.9,75.6,75.0,0.0,54.45,12.84534,77.66346,,NaN,,800.0,,0 / 0,5037,2017-10-05 18:50:47:974
-3.459,-9.009,0.505,-2.354,-9.516,0.268,-1.05,0.651,0.229,-10.2,-3.3,0.2,2.132,39.2,15.2,-28.3,156.9,75.6,75.0,0.0,54.45,12.84534,77.66346,,NaN,,800.0,,0 / 0,5047,2017-10-05 18:50:47:984
-3.228,-8.813,0.568,-2.353,-9.517,0.241,-0.823,0.845,0.318,-10.2,-3.3,0.2,2.132,39.1,15.1,-28.6,146.7,76.0,83.5,0.0,54.45,12.84534,77.66346,,NaN,,800.0,,0 / 0,5057,2017-10-05 18:50:47:994
-3.093,-8.854,0.636,-2.352,-9.517,0.25,-0.691,0.805,0.376,-8.3,-3.1,-0.8,2.132,38.9,15.2,-28.6,146.7,76.0,83.5,0.0,54.45,12.84534,77.66346,,NaN,,800.0,,0 / 0,5067,2017-10-05 18:50:48:004
-3.093,-8.854,0.636,-2.352,-9.517,0.25,-0.691,0.805,0.376,-8.3,-3.1,-0.8,2.132,38.9,15.2,-28.6,146.7,76.0,83.5,0.0,54.45,12.84534,77.66346,,NaN,,800.0,,0 / 0,5077,2017-10-05 18:50:48:014
-3.12,-9.131,0.7,-2.347,-9.518,0.275,-0.723,0.533,0.413,-4.7,-3.4,-3.0,2.132,39.2,15.1,-28.7,146.7,76.0,83.5,0.0,29.33,12.84534,77.66346,,NaN,,800.0,,0 / 0,5087,2017-10-05 18:50:48:024
-3.12,-9.131,0.7,-2.347,-9.518,0.275,-0.723,0.533,0.413,-4.7,-3.4,-3.0,2.132,39.2,15.1,-28.7,146.7,76.0,83.5,0.0,29.33,12.84534,77.66346,,NaN,,800.0,,0 / 0,5097,2017-10-05 18:50:48:034
-3.305,-9.365,0.739,-2.336,-9.519,0.322,-0.916,0.305,0.406,-0.5,-3.8,-4.5,2.132,39.0,15.2,-28.9,146.9,76.1,83.3,0.0,29.33,12.84534,77.66346,,NaN,,800.0,,0 / 0,5108,2017-10-05 18:50:48:045
-3.305,-9.365,0.739,-2.336,-9.519,0.322,-0.916,0.305,0.406,-0.5,-3.8,-4.5,2.132,39.0,15.2,-28.9,146.9,76.1,83.3,0.0,29.33,12.84534,77.66346,,NaN,,800.0,,0 / 0,5118,2017-10-05 18:50:48:055
-3.531,-9.401,0.697,-2.327,-9.518,0.395,-1.147,0.269,0.291,4.4,-3.7,-5.2,2.132,38.9,15.3,-29.3,146.9,76.1,83.3,0.0,29.33,12.84534,77.66346,,NaN,,800.0,,0 / 0,5127,2017-10-05 18:50:48:064
-3.531,-9.401,0.697,-2.327,-9.518,0.395,-1.147,0.269,0.291,8.8,-3.6,-4.4,6.397,38.9,15.3,-29.3,146.9,76.1,83.3,0.0,29.33,12.84534,77.66346,,NaN,,800.0,,0 / 0,5137,2017-10-05 18:50:48:074
-3.681,-9.372,0.535,-2.314,-9.518,0.483,-1.308,0.296,0.043,11.6,-4.1,-2.4,6.397,38.8,15.8,-29.5,149.0,76.1,80.4,0.0,29.33,12.84534,77.66346,,NaN,,800.0,,0 / 0,5146,2017-10-05 18:50:48:083
-3.639,-9.358,0.3,-2.311,-9.515,0.538,-1.27,0.308,-0.242,11.6,-4.1,-2.4,6.397,38.8,15.8,-29.5,149.0,76.1,80.4,0.0,29.33,12.84534,77.66346,,NaN,,800.0,,0 / 0,5157,2017-10-05 18:50:48:094
-3.639,-9.358,0.3,-2.311,-9.515,0.538,-1.27,0.308,-0.242,11.6,-3.6,0.3,6.397,38.8,15.8,-29.5,149.0,76.1,80.4,0.0,29.33,12.84534,77.66346,,NaN,,800.0,,0 / 0,5167,2017-10-05 18:50:48:104
-3.434,-9.329,0.136,-2.305,-9.513,0.605,-1.074,0.334,-0.471,11.6,-3.6,0.3,6.397,38.8,15.5,-29.6,149.0,76.1,80.4,0.0,29.33,12.84534,77.66346,,NaN,,800.0,,0 / 0,5177,2017-10-05 18:50:48:114
-3.434,-9.329,0.136,-2.305,-9.513,0.605,-1.074,0.334,-0.471,9.4,-3.6,2.4,6.397,38.8,15.5,-29.6,149.0,76.1,80.4,0.0,29.33,12.84534,77.66346,,NaN,,800.0,,0 / 0,5187,2017-10-05 18:50:48:124
-3.13,-9.324,0.069,-2.313,-9.509,0.633,-0.766,0.335,-0.564,9.4,-3.6,2.4,6.397,38.9,15.5,-29.3,155.6,75.9,75.3,0.0,29.33,12.84534,77.66346,,NaN,,800.0,,0 / 0,5197,2017-10-05 18:50:48:134
-3.13,-9.324,0.069,-2.313,-9.509,0.633,-0.766,0.335,-0.564,5.8,-5.5,3.5,6.397,38.9,15.5,-29.3,155.6,75.9,75.3,0.0,29.33,12.84534,77.66346,,NaN,,800.0,,0 / 0,5207,2017-10-05 18:50:48:144
-2.817,-9.39,0.112,-2.319,-9.51,0.594,-0.453,0.271,-0.484,5.8,-5.5,3.5,6.397,38.8,15.5,-29.3,155.6,75.9,75.3,0.0,29.33,12.84534,77.66346,,NaN,,800.0,,0 / 0,5217,2017-10-05 18:50:48:154
-2.817,-9.39,0.112,-2.319,-9.51,0.594,-0.453,0.271,-0.484,1.5,-9.7,2.8,6.397,38.8,15.5,-29.3,155.6,75.9,75.3,0.0,29.33,12.84534,77.66346,,NaN,,800.0,,0 / 0,5227,2017-10-05 18:50:48:164
-2.37,-9.563,0.328,-2.32,-9.514,0.527,-0.012,0.104,-0.204,-2.5,-13.3,1.0,6.397,39.0,15.5,-29.3,155.1,75.9,75.6,0.0,29.33,12.84534,77.66346,,NaN,,800.0,,0 / 0,5237,2017-10-05 18:50:48:174
-2.37,-9.563,0.328,-2.32,-9.514,0.527,-0.012,0.104,-0.204,-2.5,-13.3,1.0,6.397,39.0,15.5,-29.3,155.1,75.9,75.6,0.0,29.33,12.84534,77.66346,,NaN,,800.0,,0 / 0,5248,2017-10-05 18:50:48:185
-2.443,-9.436,0.421,-2.313,-9.521,0.416,-0.091,0.236,-0.002,-5.9,-12.4,-2.3,6.397,38.9,15.5,-29.3,155.1,75.9,75.6,0.0,29.33,12.84534,77.66346,,NaN,,800.0,,0 / 0,5258,2017-10-05 18:50:48:195
-2.443,-9.436,0.421,-2.313,-9.521,0.416,-0.091,0.236,-0.002,-7.4,-5.5,-5.8,6.397,38.9,15.5,-29.3,155.1,75.9,75.6,0.0,29.33,12.84534,77.66346,,NaN,,800.0,,0 / 0,5268,2017-10-05 18:50:48:205
-2.781,-9.224,0.597,-2.306,-9.525,0.368,-0.43,0.449,0.22,-7.4,-5.5,-5.8,6.397,39.0,15.6,-29.5,150.6,76.1,79.8,0.0,29.33,12.84534,77.66346,,NaN,,800.0,,0 / 0,5278,2017-10-05 18:50:48:215
-2.781,-9.224,0.597,-2.306,-9.525,0.368,-0.43,0.449,0.22,-6.4,4.3,-8.3,6.397,39.0,15.6,-29.5,150.6,76.1,79.8,0.0,29.33,12.84534,77.66346,,NaN,,800.0,,0 / 0,5287,2017-10-05 18:50:48:224
-3.239,-9.033,0.752,-2.288,-9.53,0.335,-0.899,0.642,0.405,-6.4,4.3,-8.3,6.397,39.1,15.5,-29.6,150.6,76.1,79.8,0.0,29.33,12.84534,77.66346,,NaN,,800.0,,0 / 0,5297,2017-10-05 18:50:48:234
-3.239,-9.033,0.752,-2.288,-9.53,0.335,-0.899,0.642,0.405,-4.2,16.6,-8.7,7.463,39.1,15.5,-29.6,150.6,76.1,79.8,0.0,29.33,12.84534,77.66346,,NaN,,800.0,,0 / 0,5308,2017-10-05 18:50:48:245
-3.577,-8.975,0.787,-2.261,-9.537,0.323,-1.258,0.706,0.452,-4.2,16.6,-8.7,7.463,39.2,15.2,-29.6,147.8,76.4,81.7,0.0,29.33,12.84534,77.66346,,NaN,,800.0,,0 / 0,5317,2017-10-05 18:50:48:254
-3.577,-8.975,0.787,-2.261,-9.537,0.323,-1.258,0.706,0.452,-1.3,25.8,-8.5,7.463,39.2,15.2,-29.6,147.8,76.4,81.7,0.0,29.33,12.84534,77.66346,,NaN,,800.0,,0 / 0,5327,2017-10-05 18:50:48:264
-3.961,-9.209,0.738,-2.243,-9.539,0.388,-1.655,0.477,0.338,1.3,27.1,-6.6,7.463,39.1,15.4,-29.6,147.8,76.4,81.7,0.0,29.33,12.84534,77.66346,,NaN,,800.0,,0 / 0,5338,2017-10-05 18:50:48:275
-3.961,-9.209,0.738,-2.243,-9.539,0.388,-1.655,0.477,0.338,1.3,27.1,-6.6,7.463,39.1,15.4,-29.6,147.8,76.4,81.7,0.0,29.33,12.84534,77.66346,,NaN,,800.0,,0 / 0,5347,2017-10-05 18:50:48:284
-3.876,-9.153,0.641,-2.229,-9.54,0.449,-1.585,0.533,0.182,1.3,27.1,-6.6,7.463,38.8,15.5,-29.6,149.3,76.6,80.2,0.0,29.33,12.84534,77.66346,,NaN,,800.0,,0 / 0,5358,2017-10-05 18:50:48:295
-3.876,-9.153,0.641,-2.229,-9.54,0.449,-1.585,0.533,0.182,1.9,23.4,-4.2,7.463,38.8,15.5,-29.6,149.3,76.6,80.2,0.0,29.33,12.84534,77.66346,,NaN,,800.0,,0 / 0,5367,2017-10-05 18:50:48:304
-3.54,-9.169,0.582,-2.229,-9.536,0.511,-1.254,0.515,0.063,-0.3,16.3,-0.3,7.463,39.0,15.5,-29.6,149.3,76.6,80.2,0.0,29.33,12.84534,77.66346,,NaN,,800.0,,0 / 0,5377,2017-10-05 18:50:48:314
-3.54,-9.169,0.582,-2.229,-9.536,0.511,-1.254,0.515,0.063,-4.5,7.8,2.0,7.463,39.0,15.5,-29.6,149.3,76.6,80.2,0.0,29.33,12.84534,77.66346,,NaN,,800.0,,0 / 0,5388,2017-10-05 18:50:48:325
-3.0,-9.36,0.648,-2.228,-9.538,0.491,-0.723,0.328,0.147,-4.5,7.8,2.0,7.463,38.8,15.5,-29.6,152.7,76.5,77.1,0.0,29.33,12.84534,77.66346,,NaN,,800.0,,0 / 0,5397,2017-10-05 18:50:48:334
-3.0,-9.36,0.648,-2.228,-9.538,0.491,-0.723,0.328,0.147,-7.0,-1.3,2.3,7.463,38.8,15.5,-29.6,152.7,76.5,77.1,0.0,25.74,12.84534,77.66346,,NaN,,800.0,,0 / 0,5407,2017-10-05 18:50:48:344
-2.722,-9.523,0.854,-2.233,-9.537,0.475,-0.445,0.168,0.365,-7.0,-1.3,2.3,7.463,38.8,15.6,-29.4,152.7,76.5,77.1,0.0,25.74,12.84534,77.66346,,NaN,,800.0,,0 / 0,5417,2017-10-05 18:50:48:354
-2.722,-9.523,0.854,-2.233,-9.537,0.475,-0.445,0.168,0.365,-7.1,-7.0,2.4,7.463,38.8,15.6,-29.4,152.7,76.5,77.1,0.0,25.74,12.84534,77.66346,,NaN,,800.0,,0 / 0,5427,2017-10-05 18:50:48:364
-2.482,-9.446,1.015,-2.239,-9.536,0.462,-0.203,0.242,0.537,-7.1,-7.0,2.4,7.463,39.2,15.5,-28.9,152.7,76.5,78.0,0.0,25.74,12.84534,77.66346,,NaN,,800.0,,0 / 0,5439,2017-10-05 18:50:48:376
-2.482,-9.446,1.015,-2.239,-9.536,0.462,-0.203,0.242,0.537,-5.0,-8.3,1.8,7.463,39.2,15.5,-28.9,152.7,76.5,78.0,0.0,25.74,12.84534,77.66346,,NaN,,800.0,,0 / 0,5447,2017-10-05 18:50:48:384
-2.489,-9.273,1.023,-2.246,-9.53,0.552,-0.203,0.406,0.454,-1.5,-7.2,0.6,7.463,39.1,15.7,-28.7,152.7,76.5,78.0,0.0,25.74,12.84534,77.66346,,NaN,,800.0,,0 / 0,5457,2017-10-05 18:50:48:394
-2.489,-9.273,1.023,-2.246,-9.53,0.552,-0.203,0.406,0.454,-1.5,-7.2,0.6,7.463,39.1,15.7,-28.7,152.7,76.5,78.0,0.0,25.74,12.84534,77.66346,,NaN,,800.0,,0 / 0,5469,2017-10-05 18:50:48:406
-2.531,-9.189,0.896,-2.25,-9.523,0.652,-0.24,0.481,0.229,2.5,-5.2,-0.8,2.132,39.4,16.0,-28.6,154.6,76.4,76.2,0.0,25.74,12.84534,77.66346,,NaN,,800.0,,0 / 0,5478,2017-10-05 18:50:48:415
-2.531,-9.189,0.896,-2.25,-9.523,0.652,-0.24,0.481,0.229,4.5,-3.4,-1.7,2.132,39.4,16.0,-28.6,154.6,76.4,76.2,0.0,25.74,12.84534,77.66346,,NaN,,800.0,,0 / 0,5489,2017-10-05 18:50:48:426
-2.669,-9.349,0.748,-2.247,-9.515,0.768,-0.38,0.316,-0.032,4.5,-3.4,-1.7,2.132,39.3,16.2,-28.6,154.6,76.4,76.2,0.0,25.74,12.84534,77.66346,,NaN,,800.0,,0 / 0,5498,2017-10-05 18:50:48:435
-2.669,-9.349,0.748,-2.247,-9.515,0.768,-0.38,0.316,-0.032,4.1,-3.3,-2.7,2.132,39.3,16.2,-28.6,154.6,76.4,76.2,0.0,25.74,12.84534,77.66346,,NaN,,800.0,,0 / 0,5509,2017-10-05 18:50:48:446
-2.811,-9.468,0.653,-2.243,-9.51,0.841,-0.522,0.194,-0.198,2.8,-5.0,-2.9,2.132,39.4,16.1,-28.7,160.1,76.0,71.1,0.0,25.74,12.84534,77.66346,,NaN,,800.0,,0 / 0,5516,2017-10-05 18:50:48:453
-2.811,-9.468,0.653,-2.243,-9.51,0.841,-0.522,0.194,-0.198,2.8,-5.0,-2.9,2.132,39.4,16.1,-28.7,160.1,76.0,71.1,0.0,25.74,12.84534,77.66346,,NaN,,800.0,,0 / 0,5529,2017-10-05 18:50:48:466
-2.928,-9.367,0.596,-2.236,-9.508,0.878,-0.645,0.291,-0.292,2.8,-5.0,-2.9,2.132,39.2,16.1,-28.9,160.1,76.0,71.1,0.0,25.74,12.84534,77.66346,,NaN,,800.0,,0 / 0,5538,2017-10-05 18:50:48:475
-2.928,-9.367,0.596,-2.236,-9.508,0.878,-0.645,0.291,-0.292,1.0,-6.3,-2.5,2.132,39.2,16.1,-28.9,160.1,76.0,71.1,0.0,25.74,12.84534,77.66346,,NaN,,800.0,,0 / 0,5548,2017-10-05 18:50:48:485
-3.047,-9.238,0.637,-2.226,-9.512,0.864,-0.773,0.422,-0.237,1.0,-7.8,-2.2,2.132,39.3,16.2,-28.9,163.0,75.8,68.6,0.0,25.74,12.84534,77.66346,,NaN,,800.0,,0 / 0,5559,2017-10-05 18:50:48:496
-3.047,-9.238,0.637,-2.226,-9.512,0.864,-0.773,0.422,-0.237,1.9,-9.2,-2.9,2.132,39.3,16.2,-28.9,163.0,75.8,68.6,0.0,25.74,12.84534,77.66346,,NaN,,800.0,,0 / 0,5567,2017-10-05 18:50:48:504
-3.064,-9.274,0.627,-2.214,-9.518,0.825,-0.801,0.393,-0.208,1.9,-9.2,-2.9,2.132,39.5,16.2,-28.9,163.0,75.8,68.6,0.0,25.74,12.84534,77.66346,,NaN,,800.0,,0 / 0,5577,2017-10-05 18:50:48:514
-3.064,-9.274,0.627,-2.214,-9.518,0.825,-0.801,0.393,-0.208,1.9,-9.2,-2.9,2.132,39.5,16.2,-28.9,163.0,75.8,68.6,0.0,25.74,12.84534,77.66346,,NaN,,800.0,,0 / 0,5587,2017-10-05 18:50:48:524
-3.064,-9.274,0.627,-2.207,-9.521,0.807,-0.808,0.396,-0.191,3.1,-8.7,-3.1,2.132,39.2,16.6,-29.0,163.0,75.8,68.6,0.0,25.74,12.84534,77.66346,,NaN,,800.0,,0 / 0,5597,2017-10-05 18:50:48:534
-3.064,-9.274,0.627,-2.207,-9.521,0.807,-0.808,0.396,-0.191,3.1,-8.7,-3.1,2.132,39.2,16.6,-29.0,163.0,75.8,68.6,0.0,25.74,12.84534,77.66346,,NaN,,800.0,,0 / 0,5607,2017-10-05 18:50:48:544
-3.202,-9.366,0.477,-2.198,-9.524,0.793,-0.953,0.309,-0.324,4.8,-6.6,-2.8,2.132,39.1,16.7,-29.0,161.4,76.1,69.9,0.0,25.74,12.84534,77.66346,,NaN,,800.0,,0 / 0,5617,2017-10-05 18:50:48:554
-3.279,-9.334,0.403,-2.187,-9.527,0.785,-1.04,0.344,-0.388,6.1,-3.0,-2.7,2.132,38.8,16.6,-29.2,161.4,76.1,69.9,0.0,25.74,12.84534,77.66346,,NaN,,800.0,,0 / 0,5627,2017-10-05 18:50:48:564
-3.279,-9.334,0.403,-2.187,-9.527,0.785,-1.04,0.344,-0.388,6.4,0.9,-1.8,2.132,38.8,16.6,-29.2,161.4,76.1,69.9,0.0,25.74,12.84534,77.66346,,NaN,,800.0,,0 / 0,5638,2017-10-05 18:50:48:575
-3.25,-9.299,0.319,-2.187,-9.527,0.785,-1.018,0.38,-0.465,6.4,0.9,-1.8,7.463,38.8,16.5,-29.2,161.1,76.3,70.3,0.0,25.74,12.84534,77.66346,,NaN,,800.0,,0 / 0,5647,2017-10-05 18:50:48:584
-3.25,-9.299,0.319,-2.18,-9.53,0.779,-1.018,0.38,-0.465,6.4,0.9,-1.8,7.463,38.8,16.5,-29.2,161.1,76.3,70.3,0.0,25.74,12.84534,77.66346,,NaN,,800.0,,0 / 0,5657,2017-10-05 18:50:48:594
-3.099,-9.33,0.298,-2.173,-9.534,0.736,-0.876,0.354,-0.443,5.4,3.8,-1.0,7.463,39.1,16.6,-29.3,161.1,76.3,70.3,0.0,25.74,12.84534,77.66346,,NaN,,800.0,,0 / 0,5667,2017-10-05 18:50:48:604
-3.099,-9.33,0.298,-2.173,-9.534,0.736,-0.876,0.354,-0.443,2.9,5.2,-0.3,7.463,39.1,16.6,-29.3,161.1,76.3,70.3,0.0,25.74,12.84534,77.66346,,NaN,,800.0,,0 / 0,5677,2017-10-05 18:50:48:614
-3.099,-9.33,0.298,-2.173,-9.534,0.736,-0.876,0.354,-0.443,2.9,5.2,-0.3,7.463,39.1,16.6,-29.3,161.1,76.3,70.3,0.0,25.74,12.84534,77.66346,,NaN,,800.0,,0 / 0,5688,2017-10-05 18:50:48:625
-2.873,-9.389,0.361,-2.169,-9.54,0.681,-0.658,0.302,-0.325,0.0,4.3,-0.1,7.463,39.3,16.7,-29.2,160.0,76.5,71.3,0.0,25.74,12.84534,77.66346,,NaN,,800.0,,0 / 0,5697,2017-10-05 18:50:48:634
-2.458,-9.404,0.606,-2.166,-9.546,0.594,-0.253,0.293,0.002,-2.2,3.6,-0.6,7.463,39.1,16.6,-29.3,160.0,76.5,71.3,0.0,25.74,12.84534,77.66346,,NaN,,800.0,,0 / 0,5707,2017-10-05 18:50:48:644
-2.458,-9.404,0.606,-2.166,-9.546,0.594,-0.253,0.293,0.002,-2.2,3.6,-0.6,7.463,39.1,16.6,-29.3,160.0,76.5,71.3,0.0,25.74,12.84534,77.66346,,NaN,,800.0,,0 / 0,5718,2017-10-05 18:50:48:655
-2.314,-9.356,0.702,-2.161,-9.55,0.538,-0.116,0.344,0.152,-3.9,3.9,-1.8,7.463,39.1,16.7,-29.3,156.3,76.8,74.7,0.0,25.74,12.84534,77.66346,,NaN,,800.0,,0 / 0,5727,2017-10-05 18:50:48:664
-2.314,-9.356,0.702,-2.161,-9.55,0.538,-0.116,0.344,0.152,-3.9,3.9,-1.8,7.463,39.1,16.7,-29.3,156.3,76.8,74.7,0.0,25.99,12.84534,77.66346,,NaN,,800.0,,0 / 0,5737,2017-10-05 18:50:48:674
-2.202,-9.328,0.812,-2.156,-9.553,0.51,-0.01,0.375,0.289,-4.2,3.1,-2.6,7.463,39.1,16.7,-29.8,156.3,76.8,74.7,0.0,25.99,12.84534,77.66346,,NaN,,800.0,,0 / 0,5748,2017-10-05 18:50:48:685
-2.202,-9.328,0.812,-2.156,-9.553,0.51,-0.01,0.375,0.289,-4.2,3.1,-2.6,7.463,39.1,16.7,-29.8,156.3,76.8,74.7,0.0,25.99,12.84534,77.66346,,NaN,,800.0,,0 / 0,5758,2017-10-05 18:50:48:695
-2.225,-9.366,0.908,-2.145,-9.555,0.516,-0.044,0.34,0.377,-3.6,2.4,-4.1,7.463,39.2,16.4,-29.6,153.2,76.9,76.7,0.0,25.99,12.84534,77.66346,,NaN,,800.0,,0 / 0,5767,2017-10-05 18:50:48:704
-2.225,-9.366,0.908,-2.145,-9.555,0.516,-0.044,0.34,0.377,-3.6,2.4,-4.1,7.463,39.2,16.4,-29.6,153.2,76.9,76.7,0.0,25.99,12.84534,77.66346,,NaN,,800.0,,0 / 0,5778,2017-10-05 18:50:48:715
-2.225,-9.366,0.908,-2.145,-9.555,0.516,-0.044,0.34,0.377,-2.1,1.5,-5.1,7.463,39.2,16.4,-29.6,153.2,76.9,76.7,0.0,25.99,12.84534,77.66346,,NaN,,800.0,,0 / 0,5787,2017-10-05 18:50:48:724
-2.289,-9.42,0.981,-2.134,-9.556,0.546,-0.118,0.288,0.419,1.5,0.8,-5.6,7.463,38.9,16.5,-29.5,153.2,76.9,76.7,0.0,25.99,12.84534,77.66346,,NaN,,800.0,,0 / 0,5797,2017-10-05 18:50:48:734
-2.631,-9.546,0.941,-2.121,-9.556,0.603,-0.468,0.162,0.323,1.5,0.8,-5.6,7.463,39.1,16.4,-29.5,155.4,77.0,75.7,0.0,25.99,12.84534,77.66346,,NaN,,800.0,,0 / 0,5807,2017-10-05 18:50:48:744
-2.631,-9.546,0.941,-2.121,-9.556,0.603,-0.468,0.162,0.323,4.6,-1.5,-5.7,8.529,39.1,16.4,-29.5,155.4,77.0,75.7,0.0,25.99,12.84534,77.66346,,NaN,,800.0,,0 / 0,5817,2017-10-05 18:50:48:754
-2.873,-9.555,0.748,-2.105,-9.553,0.697,-0.721,0.151,0.038,4.6,-1.5,-5.7,8.529,38.8,16.3,-29.4,155.4,77.0,75.7,0.0,25.99,12.84534,77.66346,,NaN,,800.0,,0 / 0,5827,2017-10-05 18:50:48:764
-2.873,-9.555,0.748,-2.105,-9.553,0.697,-0.721,0.151,0.038,6.9,-5.0,-5.2,8.529,38.8,16.3,-29.4,155.4,77.0,75.7,0.0,25.99,12.84534,77.66346,,NaN,,800.0,,0 / 0,5838,2017-10-05 18:50:48:775
-3.026,-9.482,0.574,-2.092,-9.549,0.779,-0.886,0.22,-0.214,6.7,-8.5,-3.6,8.529,38.6,16.3,-29.6,158.7,76.9,71.7,0.0,25.99,12.84534,77.66346,,NaN,,800.0,,0 / 0,5847,2017-10-05 18:50:48:784
-3.026,-9.482,0.574,-2.092,-9.549,0.779,-0.886,0.22,-0.214,6.7,-8.5,-3.6,8.529,38.6,16.3,-29.6,158.7,76.9,71.7,0.0,25.99,12.84534,77.66346,,NaN,,800.0,,0 / 0,5857,2017-10-05 18:50:48:794
-3.026,-9.482,0.574,-2.092,-9.549,0.779,-0.886,0.22,-0.214,6.0,-11.2,-2.4,8.529,38.6,16.3,-29.6,158.7,76.9,71.7,0.0,25.99,12.84534,77.66346,,NaN,,800.0,,0 / 0,5867,2017-10-05 18:50:48:804
-3.111,-9.346,0.46,-2.079,-9.548,0.832,-0.982,0.352,-0.379,6.0,-11.2,-2.4,8.529,38.9,16.2,-29.5,158.7,76.9,71.7,0.0,25.99,12.84534,77.66346,,NaN,,800.0,,0 / 0,5877,2017-10-05 18:50:48:814
-3.167,-9.305,0.353,-2.074,-9.548,0.844,-1.042,0.392,-0.497,4.8,-12.0,-0.6,8.529,38.8,16.1,-29.6,162.5,76.8,68.2,0.0,25.99,12.84534,77.66346,,NaN,,800.0,,0 / 0,5889,2017-10-05 18:50:48:826
-3.167,-9.305,0.353,-2.074,-9.548,0.844,-1.042,0.392,-0.497,2.2,-8.7,1.0,8.529,38.8,16.1,-29.6,162.5,76.8,68.2,0.0,25.99,12.84534,77.66346,,NaN,,800.0,,0 / 0,5897,2017-10-05 18:50:48:834
-3.167,-9.305,0.353,-2.074,-9.548,0.844,-1.042,0.392,-0.497,2.2,-8.7,1.0,8.529,38.8,16.1,-29.6,162.5,76.8,68.2,0.0,25.99,12.84534,77.66346,,NaN,,800.0,,0 / 0,5907,2017-10-05 18:50:48:844
-3.004,-9.207,0.368,-2.072,-9.553,0.784,-0.884,0.494,-0.422,0.0,-5.0,1.0,8.529,38.8,15.9,-29.3,162.5,76.8,68.2,0.0,25.99,12.84534,77.66346,,NaN,,800.0,,0 / 0,5917,2017-10-05 18:50:48:854
-3.004,-9.207,0.368,-2.072,-9.553,0.784,-0.884,0.494,-0.422,0.0,-5.0,1.0,8.529,38.8,15.9,-29.3,162.5,76.8,68.2,0.0,25.99,12.84534,77.66346,,NaN,,800.0,,0 / 0,5927,2017-10-05 18:50:48:864
-2.85,-9.221,0.44,-2.07,-9.559,0.72,-0.734,0.485,-0.287,-1.3,-0.7,1.2,8.529,38.6,15.8,-29.5,161.4,76.9,69.3,0.0,25.99,12.84534,77.66346,,NaN,,800.0,,0 / 0,5937,2017-10-05 18:50:48:874
-2.85,-9.221,0.44,-2.07,-9.559,0.72,-0.734,0.485,-0.287,-3.4,4.8,0.3,8.529,38.6,15.8,-29.5,161.4,76.9,69.3,0.0,25.99,12.84534,77.66346,,NaN,,800.0,,0 / 0,5947,2017-10-05 18:50:48:884
-2.795,-9.249,0.568,-2.072,-9.565,0.63,-0.679,0.464,-0.071,-3.4,4.8,0.3,8.529,38.8,16.0,-29.9,161.4,76.9,69.3,0.0,25.99,12.84534,77.66346,,NaN,,800.0,,0 / 0,5957,2017-10-05 18:50:48:894
-2.795,-9.249,0.568,-2.072,-9.565,0.63,-0.679,0.464,-0.071,-3.4,4.8,0.3,8.529,38.8,16.0,-29.9,161.4,76.9,69.3,0.0,25.99,12.84534,77.66346,,NaN,,800.0,,0 / 0,5967,2017-10-05 18:50:48:904
-2.861,-9.362,0.728,-2.069,-9.569,0.565,-0.746,0.357,0.152,-5.1,9.8,-0.7,8.529,38.6,16.1,-30.2,157.3,77.2,73.1,0.0,25.99,12.84534,77.66346,,NaN,,800.0,,0 / 0,5977,2017-10-05 18:50:48:914
-2.861,-9.362,0.728,-2.069,-9.569,0.565,-0.746,0.357,0.152,-5.0,11.0,-1.3,8.529,38.4,16.3,-30.3,157.3,77.2,73.1,0.0,25.99,12.84534,77.66346,,NaN,,800.0,,0 / 0,5988,2017-10-05 18:50:48:925
-3.009,-9.424,0.812,-2.069,-9.572,0.521,-0.892,0.298,0.278,-4.5,9.7,-0.9,2.132,38.4,16.3,-30.3,157.3,77.2,73.1,0.0,25.99,12.84534,77.66346,,NaN,,800.0,,0 / 0,5998,2017-10-05 18:50:48:935
-3.009,-9.424,0.812,-2.069,-9.572,0.521,-0.892,0.298,0.278,-4.5,9.7,-0.9,2.132,38.4,16.3,-30.3,157.3,77.2,73.1,0.0,25.99,12.84534,77.66346,,NaN,,800.0,,0 / 0,6007,2017-10-05 18:50:48:944
-3.105,-9.463,0.852,-2.07,-9.572,0.507,-0.985,0.261,0.33,-3.6,7.8,-0.3,2.132,38.5,16.4,-30.2,153.5,77.4,75.9,0.0,25.99,12.84534,77.66346,,NaN,,800.0,,0 / 0,6017,2017-10-05 18:50:48:954
-3.105,-9.463,0.852,-2.07,-9.572,0.507,-0.985,0.261,0.33,-3.6,7.8,-0.3,2.132,38.5,16.4,-30.2,153.5,77.4,75.9,0.0,25.99,12.84534,77.66346,,NaN,,800.0,,0 / 0,6027,2017-10-05 18:50:48:964
-3.073,-9.262,0.874,-2.075,-9.569,0.549,-0.948,0.456,0.311,-3.0,5.9,0.7,2.132,38.2,16.4,-30.2,153.5,77.4,75.9,0.0,25.99,12.84534,77.66346,,NaN,,800.0,,0 / 0,6037,2017-10-05 18:50:48:974
-3.073,-9.262,0.874,-2.075,-9.569,0.549,-0.948,0.456,0.311,-3.0,5.9,0.7,2.132,38.2,16.4,-30.2,153.5,77.4,75.9,0.0,25.99,12.84534,77.66346,,NaN,,800.0,,0 / 0,6047,2017-10-05 18:50:48:984
-2.929,-9.198,0.909,-2.083,-9.565,0.591,-0.799,0.514,0.304,-2.2,3.6,1.5,2.132,38.1,16.5,-30.1,154.0,77.4,75.2,0.0,26.42,12.84534,77.66346,,NaN,,800.0,,0 / 0,6057,2017-10-05 18:50:48:994
-2.929,-9.198,0.909,-2.083,-9.565,0.591,-0.799,0.514,0.304,-0.4,1.3,1.7,2.132,38.1,16.5,-30.1,154.0,77.4,75.2,0.0,26.42,12.84534,77.66346,,NaN,,800.0,,0 / 0,6067,2017-10-05 18:50:49:004
-2.772,-9.252,0.94,-2.093,-9.559,0.639,-0.634,0.456,0.286,-0.4,1.3,1.7,2.132,38.1,16.6,-30.2,154.0,77.4,75.2,0.0,26.42,12.84534,77.66346,,NaN,,800.0,,0 / 0,6077,2017-10-05 18:50:49:014
-2.772,-9.252,0.94,-2.093,-9.559,0.639,-0.634,0.456,0.286,-0.4,1.3,1.7,2.132,38.1,16.6,-30.2,154.0,77.4,75.2,0.0,26.42,12.84534,77.66346,,NaN,,800.0,,0 / 0,6087,2017-10-05 18:50:49:024
-2.655,-9.355,0.913,-2.101,-9.554,0.687,-0.511,0.349,0.211,1.5,-2.2,1.0,2.132,38.5,16.7,-30.2,157.2,77.1,73.0,0.0,26.42,12.84534,77.66346,,NaN,,800.0,,0 / 0,6097,2017-10-05 18:50:49:034
-2.655,-9.355,0.913,-2.101,-9.554,0.687,-0.511,0.349,0.211,1.5,-2.2,1.0,2.132,38.5,16.7,-30.2,157.2,77.1,73.0,0.0,26.42,12.84534,77.66346,,NaN,,800.0,,0 / 0,6107,2017-10-05 18:50:49:044
-2.617,-9.397,0.853,-2.111,-9.548,0.741,-0.464,0.302,0.098,1.8,-2.6,0.6,2.132,38.5,16.6,-29.8,157.2,77.1,73.0,0.0,26.42,12.84534,77.66346,,NaN,,800.0,,0 / 0,6117,2017-10-05 18:50:49:054
-2.617,-9.397,0.853,-2.111,-9.548,0.741,-0.464,0.302,0.098,1.8,-2.6,0.6,2.132,38.5,16.6,-29.8,157.2,77.1,73.0,0.0,26.42,12.84534,77.66346,,NaN,,800.0,,0 / 0,6127,2017-10-05 18:50:49:064
-2.754,-9.44,0.791,-2.116,-9.542,0.805,-0.595,0.253,-0.028,2.9,-2.7,-0.4,2.132,38.5,16.4,-29.5,160.8,76.8,70.6,0.0,26.42,12.84534,77.66346,,NaN,,800.0,,0 / 0,6138,2017-10-05 18:50:49:075
-2.754,-9.44,0.791,-2.116,-9.542,0.805,-0.595,0.253,-0.028,2.9,-2.7,-0.4,2.132,38.5,16.4,-29.5,160.8,76.8,70.6,0.0,26.42,12.84534,77.66346,,NaN,,800.0,,0 / 0,6147,2017-10-05 18:50:49:084
-2.903,-9.41,0.695,-2.118,-9.539,0.831,-0.738,0.28,-0.147,4.5,-2.8,-0.4,6.397,38.9,16.6,-29.3,160.8,76.8,70.6,0.0,26.42,12.84534,77.66346,,NaN,,800.0,,0 / 0,6158,2017-10-05 18:50:49:095
-2.903,-9.41,0.695,-2.118,-9.539,0.831,-0.738,0.28,-0.147,5.3,-2.2,-0.3,6.397,38.9,16.6,-29.3,160.8,76.8,70.6,0.0,26.42,12.84534,77.66346,,NaN,,800.0,,0 / 0,6167,2017-10-05 18:50:49:104
-2.992,-9.346,0.578,-2.117,-9.538,0.849,-0.827,0.342,-0.281,5.3,-2.2,-0.3,6.397,38.9,16.4,-29.2,163.1,76.6,68.6,0.0,26.42,12.84534,77.66346,,NaN,,800.0,,0 / 0,6177,2017-10-05 18:50:49:114
-2.992,-9.346,0.578,-2.117,-9.538,0.849,-0.827,0.342,-0.281,5.3,-2.2,-0.3,6.397,38.9,16.4,-29.2,163.1,76.6,68.6,0.0,26.42,12.84534,77.66346,,NaN,,800.0,,0 / 0,6187,2017-10-05 18:50:49:124
-3.029,-9.332,0.502,-2.118,-9.537,0.857,-0.863,0.354,-0.363,4.8,-1.0,0.1,6.397,38.9,16.4,-29.3,163.1,76.6,68.6,0.0,26.42,12.84534,77.66346,,NaN,,800.0,,0 / 0,6197,2017-10-05 18:50:49:134
-3.029,-9.332,0.502,-2.118,-9.537,0.857,-0.863,0.354,-0.363,3.5,0.6,0.5,6.397,38.9,16.4,-29.3,163.1,76.6,68.6,0.0,26.42,12.84534,77.66346,,NaN,,800.0,,0 / 0,6207,2017-10-05 18:50:49:144
-3.006,-9.312,0.468,-2.118,-9.538,0.838,-0.839,0.376,-0.378,3.5,0.6,0.5,6.397,39.0,16.3,-29.3,163.7,76.5,68.0,0.0,26.42,12.84534,77.66346,,NaN,,800.0,,0 / 0,6217,2017-10-05 18:50:49:154
-3.006,-9.312,0.468,-2.118,-9.538,0.838,-0.839,0.376,-0.378,1.7,1.7,0.7,6.397,39.0,16.3,-29.3,163.7,76.5,68.0,0.0,26.42,12.84534,77.66346,,NaN,,800.0,,0 / 0,6227,2017-10-05 18:50:49:164
-2.935,-9.263,0.483,-2.118,-9.542,0.798,-0.77,0.428,-0.322,-0.1,2.6,0.6,6.397,38.9,16.4,-29.2,163.7,76.5,68.0,0.0,26.42,12.84534,77.66346,,NaN,,800.0,,0 / 0,6237,2017-10-05 18:50:49:174
-2.935,-9.263,0.483,-2.118,-9.542,0.798,-0.77,0.428,-0.322,-0.1,2.6,0.6,6.397,38.9,16.4,-29.2,163.7,76.5,68.0,0.0,26.42,12.84534,77.66346,,NaN,,800.0,,0 / 0,6247,2017-10-05 18:50:49:184
-2.875,-9.305,0.561,-2.118,-9.548,0.726,-0.711,0.392,-0.174,-2.0,5.2,0.8,6.397,38.6,16.3,-29.2,162.2,76.7,69.4,0.0,26.42,12.84534,77.66346,,NaN,,800.0,,0 / 0,6257,2017-10-05 18:50:49:194
-2.875,-9.305,0.561,-2.118,-9.548,0.726,-0.711,0.392,-0.174,-2.0,5.2,0.8,6.397,38.6,16.3,-29.2,162.2,76.7,69.4,0.0,26.42,12.84534,77.66346,,NaN,,800.0,,0 / 0,6267,2017-10-05 18:50:49:204
-2.79,-9.352,0.676,-2.119,-9.552,0.666,-0.627,0.35,-0.001,-2.7,7.6,0.7,6.397,38.7,16.4,-29.0,162.2,76.7,69.4,0.0,26.42,12.84534,77.66346,,NaN,,800.0,,0 / 0,6277,2017-10-05 18:50:49:214
-2.79,-9.352,0.676,-2.119,-9.552,0.666,-0.627,0.35,-0.001,-2.7,7.6,0.7,6.397,38.7,16.4,-29.0,162.2,76.7,69.4,0.0,26.42,12.84534,77.66346,,NaN,,800.0,,0 / 0,6287,2017-10-05 18:50:49:224
-2.717,-9.411,0.742,-2.121,-9.554,0.618,-0.552,0.294,0.111,-2.7,7.3,0.6,6.397,38.8,16.4,-29.1,158.8,76.9,72.5,0.0,26.42,12.84534,77.66346,,NaN,,800.0,,0 / 0,6297,2017-10-05 18:50:49:234
-2.717,-9.411,0.742,-2.121,-9.554,0.618,-0.552,0.294,0.111,-3.0,6.2,0.6,6.397,38.8,16.4,-29.1,158.8,76.9,72.5,0.0,26.42,12.84534,77.66346,,NaN,,800.0,,0 / 0,6307,2017-10-05 18:50:49:244
-2.667,-9.434,0.793,-2.124,-9.556,0.587,-0.5,0.273,0.193,-2.7,3.0,0.3,6.397,38.9,16.4,-28.9,158.8,76.9,72.5,0.0,26.42,12.84534,77.66346,,NaN,,800.0,,0 / 0,6317,2017-10-05 18:50:49:254
-2.667,-9.434,0.793,-2.124,-9.556,0.587,-0.5,0.273,0.193,-2.7,3.0,0.3,6.397,38.9,16.4,-28.9,158.8,76.9,72.5,0.0,26.42,12.84534,77.66346,,NaN,,800.0,,0 / 0,6329,2017-10-05 18:50:49:266
-2.705,-9.433,0.866,-2.129,-9.553,0.609,-0.533,0.272,0.243,-2.0,-0.2,0.5,6.397,38.8,16.3,-29.0,156.6,77.0,74.6,0.0,26.42,12.84534,77.66346,,NaN,,800.0,,0 / 0,6337,2017-10-05 18:50:49:274
-2.705,-9.433,0.866,-2.129,-9.553,0.609,-0.533,0.272,0.243,-2.0,-0.2,0.5,6.397,38.8,16.3,-29.0,156.6,77.0,74.6,0.0,26.42,12.84534,77.66346,,NaN,,800.0,,0 / 0,6347,2017-10-05 18:50:49:284
