ACCELEROMETER X (m/s²),ACCELEROMETER Y (m/s²),ACCELEROMETER Z (m/s²),GRAVITY X (m/s²),GRAVITY Y (m/s²),GRAVITY Z (m/s²),LINEAR ACCELERATION X (m/s²),LINEAR ACCELERATION Y (m/s²),LINEAR ACCELERATION Z (m/s²),GYROSCOPE X (°/s),GYROSCOPE Y (°/s),GYROSCOPE Z (°/s),LIGHT (lux),MAGNETIC FIELD X (μT),MAGNETIC FIELD Y (μT),MAGNETIC FIELD Z (μT),ORIENTATION Z (azimuth °),ORIENTATION X (pitch °),ORIENTATION Y (roll °),PROXIMITY (m),SOUND LEVEL (dB),LOCATION Latitude : ,LOCATION Longitude : ,LOCATION Altitude ( m),LOCATION Altitude-google ( m),LOCATION Speed ( Kmh),LOCATION Accuracy ( m),LOCATION ORIENTATION (°),Satellites in range,Time since start in ms ,YYYY-MO-DD HH-MI-SS_SSS
-1.383,4.062,10.484,-1.336,3.583,9.03,-0.025,0.413,1.285,-13.4,-64.6,36.4,0.0,-21.8,-44.0,7.1,154.7,-21.5,9.6,5.0,34.33,12.84107,77.65978,,944.6733398,,50.0,,0 / 1,11,2017-10-05 18:47:34:800
-1.383,4.062,10.484,-1.336,3.583,9.03,-0.025,0.413,1.285,-4.1,-47.6,39.8,0.0,-21.8,-44.0,7.1,154.7,-21.5,9.6,5.0,34.33,12.84107,77.65978,,944.6733398,,50.0,,0 / 1,20,2017-10-05 18:47:34:809
-0.405,3.779,10.156,-1.112,3.591,9.057,0.713,0.127,0.936,-4.1,-47.6,39.8,0.0,-21.3,-44.3,6.2,155.8,-21.4,8.4,5.0,34.33,12.84107,77.65978,,944.6733398,,50.0,,0 / 1,31,2017-10-05 18:47:34:820
-0.405,3.779,10.156,-1.112,3.591,9.057,0.713,0.127,0.936,6.6,-27.9,34.8,0.0,-21.3,-44.3,6.2,155.8,-21.4,8.4,5.0,34.33,12.84107,77.65978,,944.6733398,,50.0,,0 / 1,41,2017-10-05 18:47:34:830
0.401,3.509,10.434,-0.986,3.67,9.04,1.38,-0.217,1.226,6.6,-27.9,34.8,0.0,-20.8,-44.3,5.6,155.8,-21.4,8.4,5.0,34.33,12.84107,77.65978,,944.6733398,,50.0,,0 / 1,52,2017-10-05 18:47:34:841
0.872,3.336,10.268,-0.895,3.666,9.051,1.752,-0.384,1.051,17.1,-12.9,25.3,0.0,-20.7,-44.5,5.3,155.8,-21.4,8.4,5.0,34.33,12.84107,77.65978,,944.6733398,,50.0,,0 / 1,61,2017-10-05 18:47:34:850
0.872,3.336,10.268,-0.895,3.666,9.051,1.752,-0.384,1.051,25.5,-8.0,17.6,0.0,-20.7,-44.5,5.3,155.8,-21.4,8.4,5.0,34.33,12.84107,77.65978,,944.6733398,,50.0,,0 / 1,71,2017-10-05 18:47:34:860
-0.033,3.73,9.66,-0.842,3.734,9.029,0.809,-0.064,0.476,25.5,-8.0,17.6,0.0,-20.6,-44.5,5.2,154.8,-22.0,5.6,5.0,34.33,12.84107,77.65978,,944.6733398,,50.0,,0 / 1,81,2017-10-05 18:47:34:870
-0.033,3.73,9.66,-0.842,3.734,9.029,0.809,-0.064,0.476,28.3,-4.3,14.6,0.0,-20.6,-44.5,5.2,154.8,-22.0,5.6,5.0,34.33,12.84107,77.65978,,944.6733398,,50.0,,0 / 1,91,2017-10-05 18:47:34:880
-0.062,3.832,8.096,-0.696,3.782,9.021,0.634,-0.012,-1.055,28.3,9.0,14.1,0.0,-20.9,-44.5,5.2,154.8,-22.0,5.6,5.0,34.33,12.84107,77.65978,,944.6733398,,50.0,,0 / 1,100,2017-10-05 18:47:34:889
-0.062,3.832,8.096,-0.696,3.782,9.021,0.634,-0.012,-1.055,28.3,9.0,14.1,0.0,-20.9,-44.5,5.2,154.8,-22.0,5.6,5.0,34.33,12.84107,77.65978,,944.6733398,,50.0,,0 / 1,111,2017-10-05 18:47:34:900
0.248,3.845,7.385,-0.624,3.837,9.003,0.868,-0.054,-1.736,14.9,9.0,14.1,0.0,-21.1,-44.6,5.0,155.0,-22.7,4.4,5.0,34.33,12.84107,77.65978,,944.6733398,,50.0,,0 / 1,121,2017-10-05 18:47:34:910
0.248,3.845,7.385,-0.624,3.837,9.003,0.868,-0.054,-1.736,-0.8,17.6,11.8,0.0,-21.1,-44.6,5.0,155.0,-22.7,4.4,5.0,46.82,12.84107,77.65978,,944.6733398,,50.0,,0 / 1,131,2017-10-05 18:47:34:920
0.054,3.44,9.051,-0.64,3.813,9.012,0.693,-0.429,-0.106,-11.6,20.8,5.0,0.0,-21.1,-44.3,5.0,155.0,-22.7,4.4,5.0,46.82,12.84107,77.65978,,944.6733398,,50.0,,0 / 1,141,2017-10-05 18:47:34:930
0.054,3.44,9.051,-0.623,3.853,8.997,0.676,-0.468,-0.091,-11.6,20.8,5.0,0.0,-21.1,-44.3,5.0,155.0,-22.7,4.4,5.0,46.82,12.84107,77.65978,,944.6733398,,50.0,,0 / 1,151,2017-10-05 18:47:34:940
0.054,3.44,9.051,-0.623,3.853,8.997,0.676,-0.468,-0.091,-14.4,12.9,-4.9,0.0,-21.1,-44.3,5.0,155.0,-22.7,4.4,5.0,46.82,12.84107,77.65978,,944.6733398,,50.0,,0 / 1,161,2017-10-05 18:47:34:950
-0.249,3.739,10.183,-0.626,3.836,9.003,0.381,-0.158,1.016,-14.4,12.9,-4.9,0.0,-22.0,-44.0,5.4,153.3,-23.1,4.0,5.0,46.82,12.84107,77.65978,,944.6733398,,50.0,,0 / 1,171,2017-10-05 18:47:34:960
-0.249,3.739,10.183,-0.626,3.836,9.003,0.381,-0.158,1.016,-12.2,-8.3,-9.7,0.0,-22.0,-44.0,5.4,153.3,-23.1,4.0,5.0,46.82,12.84107,77.65978,,944.6733398,,50.0,,0 / 1,181,2017-10-05 18:47:34:970
-1.069,4.81,9.874,-0.538,3.789,9.029,-0.514,0.944,0.687,-9.7,-39.8,-5.7,0.0,-22.5,-43.8,5.8,153.3,-23.1,4.0,5.0,46.82,12.84107,77.65978,,944.6733398,,50.0,,0 / 1,191,2017-10-05 18:47:34:980
-1.069,4.81,9.874,-0.538,3.789,9.029,-0.514,0.944,0.687,-9.7,-39.8,-5.7,0.0,-22.5,-43.8,5.8,153.3,-23.1,4.0,5.0,46.82,12.84107,77.65978,,944.6733398,,50.0,,0 / 1,201,2017-10-05 18:47:34:990
-1.142,4.579,9.096,-0.452,3.727,9.06,-0.672,0.779,-0.11,-13.1,-52.5,6.6,0.0,-22.9,-43.7,5.8,152.5,-22.7,3.4,5.0,46.82,12.84107,77.65978,,944.6733398,,50.0,,0 / 1,211,2017-10-05 18:47:35:000
-1.142,4.579,9.096,-0.452,3.727,9.06,-0.672,0.779,-0.11,-13.1,-52.5,6.6,0.0,-22.9,-43.7,5.8,152.5,-22.7,3.4,5.0,46.82,12.84107,77.65978,,944.6733398,,50.0,,0 / 1,221,2017-10-05 18:47:35:010
-0.138,3.912,9.52,-0.272,3.664,9.093,0.137,0.186,0.275,-14.8,-42.8,8.7,0.0,-23.2,-43.7,5.7,152.5,-22.7,3.4,5.0,46.82,12.84107,77.65978,,944.6733398,,50.0,,0 / 1,231,2017-10-05 18:47:35:020
0.907,3.979,9.795,-0.242,3.668,9.092,1.134,0.247,0.546,-11.3,-32.5,6.1,0.0,-23.4,-43.6,5.8,152.5,-22.7,3.4,5.0,46.82,12.84107,77.65978,,944.6733398,,50.0,,0 / 1,241,2017-10-05 18:47:35:030
0.907,3.979,9.795,-0.242,3.668,9.092,1.134,0.247,0.546,-11.3,-32.5,6.1,0.0,-23.4,-43.6,5.8,152.5,-22.7,3.4,5.0,46.82,12.84107,77.65978,,944.6733398,,50.0,,0 / 1,251,2017-10-05 18:47:35:040
0.515,3.309,8.927,-0.175,3.665,9.095,0.682,-0.408,-0.311,-11.3,-32.5,6.1,0.0,-23.3,-43.6,5.8,152.2,-22.0,1.5,5.0,46.82,12.84107,77.65978,,944.6733398,,50.0,,0 / 1,261,2017-10-05 18:47:35:050
0.515,3.309,8.927,-0.175,3.665,9.095,0.682,-0.408,-0.311,-9.3,-22.5,-1.9,0.0,-23.3,-43.6,5.8,152.2,-22.0,1.5,5.0,46.82,12.84107,77.65978,,944.6733398,,50.0,,0 / 1,271,2017-10-05 18:47:35:060
0.981,3.97,9.807,-0.077,3.63,9.11,1.042,0.276,0.54,-8.5,-15.5,-11.2,0.0,-23.6,-43.3,6.1,152.2,-22.0,1.5,5.0,46.82,12.84107,77.65978,,944.6733398,,50.0,,0 / 1,281,2017-10-05 18:47:35:070
0.012,3.395,9.718,-0.06,3.619,9.114,0.072,-0.279,0.447,-6.9,-14.4,-14.8,0.0,-23.6,-43.3,6.1,150.4,-21.7,0.5,5.0,46.82,12.84107,77.65978,,944.6733398,,50.0,,0 / 1,291,2017-10-05 18:47:35:080
0.012,3.395,9.718,-0.06,3.619,9.114,0.072,-0.279,0.447,-6.9,-14.4,-14.8,0.0,-23.6,-43.3,6.1,150.4,-21.7,0.5,5.0,46.82,12.84107,77.65978,,944.6733398,,50.0,,0 / 1,301,2017-10-05 18:47:35:090
-0.481,3.698,10.058,0.013,3.586,9.127,-0.486,0.053,0.769,-6.9,-14.4,-14.8,0.0,-23.5,-43.4,5.9,150.4,-21.7,0.5,5.0,46.82,12.84107,77.65978,,944.6733398,,50.0,,0 / 1,311,2017-10-05 18:47:35:100
-0.481,3.698,10.058,0.013,3.586,9.127,-0.486,0.053,0.769,-6.9,-14.4,-14.8,0.0,-23.5,-43.4,5.9,150.4,-21.7,0.5,5.0,46.82,12.84107,77.65978,,944.6733398,,50.0,,0 / 1,322,2017-10-05 18:47:35:111
-0.481,3.698,10.058,0.038,3.572,9.133,-0.511,0.066,0.764,-5.7,-12.1,-13.7,0.0,-23.1,-43.3,5.8,150.4,-21.7,0.5,5.0,46.82,12.84107,77.65978,,944.6733398,,50.0,,0 / 1,331,2017-10-05 18:47:35:120
0.074,3.56,10.091,0.073,3.536,9.147,0.0,-0.033,0.782,-5.1,-15.5,-9.6,0.0,-22.7,-43.4,5.9,151.4,-21.4,-0.2,5.0,46.82,12.84107,77.65978,,944.6733398,,50.0,,0 / 1,341,2017-10-05 18:47:35:130
0.074,3.56,10.091,0.073,3.536,9.147,0.0,-0.033,0.782,-3.3,-17.8,-10.6,0.0,-22.7,-43.4,5.9,151.4,-21.4,-0.2,5.0,46.82,12.84107,77.65978,,944.6733398,,50.0,,0 / 1,351,2017-10-05 18:47:35:140
-0.188,3.93,10.1,0.09,3.509,9.157,-0.275,0.358,0.781,-3.3,-17.8,-10.6,0.0,-22.6,-43.5,6.1,151.4,-21.4,-0.2,5.0,46.82,12.84107,77.65978,,944.6733398,,50.0,,0 / 1,361,2017-10-05 18:47:35:150
-0.188,3.93,10.1,0.09,3.509,9.157,-0.275,0.358,0.781,-3.0,-17.3,-9.3,0.0,-22.6,-43.5,6.1,151.4,-21.4,-0.2,5.0,46.82,12.84107,77.65978,,944.6733398,,50.0,,0 / 1,371,2017-10-05 18:47:35:160
-0.295,4.045,9.593,0.11,3.493,9.163,-0.401,0.487,0.276,-1.6,-18.9,-6.3,0.0,-22.4,-43.5,6.2,152.9,-21.0,-0.6,5.0,46.82,12.84107,77.65978,,944.6733398,,50.0,,0 / 1,381,2017-10-05 18:47:35:170
-0.295,4.045,9.593,0.11,3.493,9.163,-0.401,0.487,0.276,-1.6,-18.9,-6.3,0.0,-22.4,-43.5,6.2,152.9,-21.0,-0.6,5.0,46.82,12.84107,77.65978,,944.6733398,,50.0,,0 / 1,390,2017-10-05 18:47:35:179
0.037,4.172,9.697,0.165,3.471,9.17,-0.128,0.633,0.371,-1.9,-15.3,-4.1,0.0,-22.0,-43.7,6.1,152.9,-21.0,-0.6,5.0,46.82,12.84107,77.65978,,944.6733398,,50.0,,0 / 1,400,2017-10-05 18:47:35:189
0.037,4.172,9.697,0.165,3.471,9.17,-0.128,0.633,0.371,-1.9,-15.3,-4.1,0.0,-22.0,-43.7,6.1,152.9,-21.0,-0.6,5.0,46.82,12.84107,77.65978,,944.6733398,,50.0,,0 / 1,411,2017-10-05 18:47:35:200
0.362,3.804,9.767,0.191,3.465,9.172,0.166,0.279,0.438,-0.1,-14.5,-4.3,0.0,-22.0,-43.7,6.1,152.9,-20.7,-1.0,5.0,46.82,12.84107,77.65978,,944.6733398,,50.0,,0 / 1,421,2017-10-05 18:47:35:210
0.3,3.892,10.171,0.229,3.481,9.165,0.067,0.348,0.842,1.3,-21.2,-6.9,0.0,-22.0,-43.8,6.3,152.9,-20.7,-1.0,5.0,46.82,12.84107,77.65978,,944.6733398,,50.0,,0 / 1,431,2017-10-05 18:47:35:220
0.3,3.892,10.171,0.229,3.481,9.165,0.067,0.348,0.842,1.3,-21.2,-6.9,1.066,-22.0,-43.8,6.3,152.9,-20.7,-1.0,5.0,46.82,12.84107,77.65978,,944.6733398,,50.0,,0 / 1,441,2017-10-05 18:47:35:230
0.331,3.885,9.671,0.305,3.503,9.154,0.021,0.319,0.361,1.7,-30.4,-9.0,1.066,-21.7,-44.0,6.3,152.8,-20.8,-1.4,5.0,46.82,12.84107,77.65978,,944.6733398,,50.0,,1 / 1,450,2017-10-05 18:47:35:239
0.331,3.885,9.671,0.305,3.503,9.154,0.021,0.319,0.361,2.8,-28.1,-8.9,1.066,-21.7,-44.0,6.3,152.8,-20.8,-1.4,5.0,46.82,12.84107,77.65978,,944.6733398,,50.0,,1 / 1,461,2017-10-05 18:47:35:250
0.342,3.928,9.385,0.426,3.534,9.138,-0.089,0.33,0.097,2.8,-28.1,-8.9,1.066,-21.5,-44.0,6.5,152.8,-20.8,-1.4,5.0,46.82,12.84107,77.65978,,944.6733398,,50.0,,1 / 1,471,2017-10-05 18:47:35:260
0.706,4.005,9.241,0.443,3.537,9.136,0.252,0.404,-0.043,2.9,-21.5,-10.6,1.066,-21.6,-44.2,6.6,152.8,-20.8,-1.4,5.0,46.82,12.84107,77.65978,,944.6733398,,50.0,,1 / 1,481,2017-10-05 18:47:35:270
0.706,4.005,9.241,0.443,3.537,9.136,0.252,0.404,-0.043,2.9,-21.5,-10.6,1.066,-21.6,-44.2,6.6,152.8,-20.8,-1.4,5.0,32.94,12.84107,77.65978,,944.6733398,,50.0,,1 / 1,491,2017-10-05 18:47:35:280
0.377,4.057,8.976,0.485,3.545,9.131,-0.115,0.447,-0.299,1.7,-14.6,-9.6,1.066,-21.5,-44.4,6.6,153.7,-21.1,-2.8,5.0,32.94,12.84107,77.65978,,944.6733398,,50.0,,1 / 1,501,2017-10-05 18:47:35:290
0.332,3.99,9.283,0.517,3.551,9.127,-0.19,0.375,0.008,1.7,-14.6,-9.6,1.066,-21.5,-44.4,6.6,153.7,-21.1,-2.8,5.0,32.94,12.84107,77.65978,,944.6733398,,50.0,,1 / 1,511,2017-10-05 18:47:35:300
0.332,3.99,9.283,0.517,3.551,9.127,-0.19,0.375,0.008,-0.4,-9.7,-7.7,1.066,-21.5,-44.4,6.6,153.7,-21.1,-2.8,5.0,32.94,12.84107,77.65978,,944.6733398,,50.0,,1 / 1,521,2017-10-05 18:47:35:310
0.496,3.826,9.545,0.537,3.559,9.122,-0.049,0.206,0.27,-1.0,-9.7,-6.0,1.066,-21.2,-44.4,6.8,153.7,-21.1,-2.8,5.0,32.94,12.84107,77.65978,,944.6733398,,50.0,,1 / 1,531,2017-10-05 18:47:35:320
0.496,3.826,9.545,0.537,3.559,9.122,-0.049,0.206,0.27,-1.0,-9.7,-6.0,1.066,-21.2,-44.4,6.8,153.7,-21.1,-2.8,5.0,32.94,12.84107,77.65978,,944.6733398,,50.0,,1 / 1,541,2017-10-05 18:47:35:330
0.437,3.717,9.395,0.57,3.58,9.112,-0.14,0.078,0.132,-0.6,-12.2,-6.1,1.066,-21.3,-44.5,6.8,153.6,-21.3,-3.4,5.0,32.94,12.84107,77.65978,,944.6733398,,50.0,,1 / 1,551,2017-10-05 18:47:35:340
0.437,3.717,9.395,0.57,3.58,9.112,-0.14,0.078,0.132,-0.6,-12.2,-6.1,1.066,-21.3,-44.5,6.8,153.6,-21.3,-3.4,5.0,32.94,12.84107,77.65978,,944.6733398,,50.0,,1 / 1,561,2017-10-05 18:47:35:350
0.316,3.955,9.143,0.594,3.591,9.106,-0.284,0.301,-0.11,-1.9,-14.1,-4.0,1.066,-21.1,-44.6,7.4,153.6,-21.3,-3.4,5.0,32.94,12.84107,77.65978,,944.6733398,,50.0,,1 / 1,571,2017-10-05 18:47:35:360
0.316,3.955,9.143,0.594,3.591,9.106,-0.284,0.301,-0.11,-4.8,-17.7,-1.5,1.066,-21.1,-44.6,7.4,153.6,-21.3,-3.4,5.0,32.94,12.84107,77.65978,,944.6733398,,50.0,,1 / 1,581,2017-10-05 18:47:35:370
0.444,3.844,9.286,0.636,3.589,9.104,-0.199,0.194,0.032,-4.8,-17.7,-1.5,1.066,-20.9,-44.7,7.6,154.1,-21.5,-3.7,5.0,32.94,12.84107,77.65978,,944.6733398,,50.0,,1 / 1,591,2017-10-05 18:47:35:380
0.444,3.844,9.286,0.636,3.589,9.104,-0.199,0.194,0.032,-5.8,-17.2,0.9,1.066,-20.9,-44.7,7.6,154.1,-21.5,-3.7,5.0,32.94,12.84107,77.65978,,944.6733398,,50.0,,1 / 1,600,2017-10-05 18:47:35:389
0.602,3.837,9.848,0.657,3.626,9.088,-0.065,0.149,0.602,-5.8,-17.2,0.9,0.0,-20.9,-44.5,7.9,154.1,-21.5,-3.7,5.0,32.94,12.84107,77.65978,,944.6733398,,50.0,,1 / 1,611,2017-10-05 18:47:35:400
0.602,3.837,9.848,0.657,3.626,9.088,-0.065,0.149,0.602,-4.6,-19.4,2.0,0.0,-20.9,-44.5,7.9,154.1,-21.5,-3.7,5.0,32.94,12.84107,77.65978,,944.6733398,,50.0,,1 / 1,621,2017-10-05 18:47:35:410
1.043,3.435,10.158,0.699,3.646,9.077,0.327,-0.266,0.918,-2.9,-27.1,-2.1,0.0,-21.0,-44.3,7.9,153.6,-21.7,-4.1,5.0,32.94,12.84107,77.65978,,944.6733398,,50.0,,1 / 1,631,2017-10-05 18:47:35:420
1.043,3.435,10.158,0.699,3.646,9.077,0.327,-0.266,0.918,-2.9,-27.1,-2.1,0.0,-21.0,-44.3,7.9,153.6,-21.7,-4.1,5.0,32.94,12.84107,77.65978,,944.6733398,,50.0,,1 / 1,640,2017-10-05 18:47:35:429
0.873,3.533,10.109,0.774,3.655,9.067,0.085,-0.179,0.879,-0.3,-38.1,-8.1,0.0,-20.8,-44.3,7.9,153.6,-21.7,-4.1,5.0,32.94,12.84107,77.65978,,944.6733398,,50.0,,1 / 1,651,2017-10-05 18:47:35:440
0.873,3.533,10.109,0.774,3.655,9.067,0.085,-0.179,0.879,-0.3,-38.1,-8.1,0.0,-20.8,-44.3,7.9,153.6,-21.7,-4.1,5.0,32.94,12.84107,77.65978,,944.6733398,,50.0,,1 / 1,661,2017-10-05 18:47:35:450
0.781,3.717,9.878,0.877,3.653,9.059,-0.108,0.005,0.66,1.6,-44.8,-10.1,0.0,-20.8,-44.3,7.9,153.4,-21.9,-4.9,5.0,32.94,12.84107,77.65978,,944.6733398,,50.0,,1 / 1,670,2017-10-05 18:47:35:459
0.781,3.717,9.878,0.877,3.653,9.059,-0.108,0.005,0.66,1.6,-44.8,-10.1,0.0,-20.8,-44.3,7.9,153.4,-21.9,-4.9,5.0,32.94,12.84107,77.65978,,944.6733398,,50.0,,1 / 1,681,2017-10-05 18:47:35:470
0.726,4.127,9.505,0.928,3.661,9.05,-0.214,0.4,0.302,5.7,-36.7,-7.5,0.0,-21.2,-44.2,7.9,153.4,-21.9,-4.9,5.0,32.94,12.84107,77.65978,,944.6733398,,50.0,,1 / 1,691,2017-10-05 18:47:35:480
1.256,4.014,9.442,1.016,3.663,9.04,0.22,0.287,0.251,7.2,-25.1,-4.8,0.0,-21.1,-44.2,8.0,153.4,-21.9,-4.9,5.0,32.94,12.84107,77.65978,,944.6733398,,50.0,,1 / 1,701,2017-10-05 18:47:35:490
1.256,4.014,9.442,1.016,3.663,9.04,0.22,0.287,0.251,7.2,-25.1,-4.8,0.0,-21.1,-44.2,8.0,153.4,-21.9,-4.9,5.0,32.94,12.84107,77.65978,,944.6733398,,50.0,,1 / 1,711,2017-10-05 18:47:35:500
1.331,4.368,9.806,1.086,3.688,9.021,0.223,0.609,0.627,10.6,-16.2,-5.6,0.0,-20.9,-44.1,7.9,153.0,-22.1,-6.9,5.0,32.94,12.84107,77.65978,,944.6733398,,50.0,,1 / 1,721,2017-10-05 18:47:35:510
1.331,4.368,9.806,1.086,3.688,9.021,0.223,0.609,0.627,13.5,-9.9,-5.3,0.0,-20.9,-44.1,7.9,153.0,-22.1,-6.9,5.0,32.94,12.84107,77.65978,,944.6733398,,50.0,,1 / 1,731,2017-10-05 18:47:35:520
1.24,4.294,9.271,1.105,3.74,8.998,0.115,0.485,0.125,13.5,-9.9,-5.3,0.0,-20.8,-43.8,7.9,153.0,-22.1,-6.9,5.0,32.94,12.84107,77.65978,,944.6733398,,50.0,,1 / 1,741,2017-10-05 18:47:35:530
1.24,4.294,9.271,1.105,3.74,8.998,0.115,0.485,0.125,13.6,0.1,-5.2,0.0,-20.8,-43.8,7.9,153.0,-22.1,-6.9,5.0,32.94,12.84107,77.65978,,944.6733398,,50.0,,1 / 1,751,2017-10-05 18:47:35:540
1.24,4.294,9.271,1.105,3.74,8.998,0.115,0.485,0.125,13.6,0.1,-5.2,0.0,-20.8,-43.8,7.9,153.0,-22.1,-6.9,5.0,32.94,12.84107,77.65978,,944.6733398,,50.0,,1 / 1,761,2017-10-05 18:47:35:550
1.286,4.292,9.104,1.117,3.789,8.976,0.148,0.435,-0.018,12.9,7.0,-2.7,0.0,-20.8,-44.0,8.2,152.9,-22.4,-7.0,5.0,32.94,12.84107,77.65978,,944.6733398,,50.0,,1 / 1,771,2017-10-05 18:47:35:560
0.797,4.429,9.292,1.126,3.839,8.954,-0.342,0.519,0.189,12.9,7.0,-2.7,0.0,-20.5,-44.3,8.6,152.9,-22.4,-7.0,5.0,32.94,12.84107,77.65978,,944.6733398,,50.0,,1 / 1,781,2017-10-05 18:47:35:570
0.797,4.429,9.292,1.126,3.839,8.954,-0.342,0.519,0.189,11.8,6.4,1.0,0.0,-20.5,-44.3,8.6,152.9,-22.4,-7.0,5.0,32.94,12.84107,77.65978,,944.6733398,,50.0,,1 / 1,791,2017-10-05 18:47:35:580
1.143,4.054,8.865,1.118,3.88,8.937,0.007,0.11,-0.214,8.1,3.3,1.9,0.0,-20.5,-44.5,8.9,152.9,-23.0,-7.2,5.0,32.94,12.84107,77.65978,,944.6733398,,50.0,,1 / 1,801,2017-10-05 18:47:35:590
1.143,4.054,8.865,1.118,3.88,8.937,0.007,0.11,-0.214,8.1,3.3,1.9,0.0,-20.5,-44.5,8.9,152.9,-23.0,-7.2,5.0,32.94,12.84107,77.65978,,944.6733398,,50.0,,1 / 1,811,2017-10-05 18:47:35:600
1.143,4.054,8.865,1.118,3.88,8.937,0.007,0.11,-0.214,8.1,3.3,1.9,0.0,-20.5,-44.5,8.9,152.9,-23.0,-7.2,5.0,32.94,12.84107,77.65978,,944.6733398,,50.0,,1 / 1,821,2017-10-05 18:47:35:610
1.228,3.977,8.969,1.061,3.998,8.891,0.148,-0.086,-0.067,3.9,1.4,1.3,0.0,-20.5,-44.3,9.3,152.9,-23.0,-7.2,5.0,32.94,12.84107,77.65978,,944.6733398,,50.0,,1 / 1,831,2017-10-05 18:47:35:620
1.228,3.977,8.969,1.061,3.998,8.891,0.148,-0.086,-0.067,0.3,-0.1,0.3,0.0,-20.5,-44.3,9.3,152.9,-23.0,-7.2,5.0,32.94,12.84107,77.65978,,944.6733398,,50.0,,1 / 1,841,2017-10-05 18:47:35:630
1.353,3.922,9.142,1.039,4.058,8.867,0.292,-0.199,0.128,0.3,-0.1,0.3,0.0,-19.9,-44.5,9.7,154.1,-24.1,-6.8,5.0,32.94,12.84107,77.65978,,944.6733398,,50.0,,1 / 1,850,2017-10-05 18:47:35:639
1.353,3.922,9.142,1.039,4.058,8.867,0.292,-0.199,0.128,-1.0,-2.2,-1.9,0.0,-19.9,-44.5,9.7,154.1,-24.1,-6.8,5.0,32.94,12.84107,77.65978,,944.6733398,,50.0,,1 / 1,861,2017-10-05 18:47:35:650
1.619,3.721,9.398,1.05,4.056,8.867,0.543,-0.395,0.381,0.2,-2.9,-6.2,0.0,-19.7,-44.6,10.1,154.1,-24.1,-6.8,5.0,29.87,12.84107,77.65978,,944.6733398,,50.0,,1 / 1,871,2017-10-05 18:47:35:660
1.619,3.721,9.398,1.05,4.056,8.867,0.543,-0.395,0.381,0.2,-2.9,-6.2,0.0,-19.7,-44.6,10.1,154.1,-24.1,-6.8,5.0,29.87,12.84107,77.65978,,944.6733398,,50.0,,1 / 1,881,2017-10-05 18:47:35:670
1.102,4.008,9.28,1.06,4.046,8.87,0.024,-0.102,0.261,0.8,-2.9,-6.3,0.0,-19.7,-44.9,10.4,154.5,-24.4,-6.8,5.0,29.87,12.84107,77.65978,,944.6733398,,50.0,,1 / 1,891,2017-10-05 18:47:35:680
2.068,3.486,8.996,1.076,4.02,8.88,0.958,-0.589,-0.028,-1.1,-1.3,-7.0,0.0,-19.7,-45.2,10.7,154.5,-24.4,-6.8,5.0,29.87,12.84107,77.65978,,944.6733398,,50.0,,1 / 1,901,2017-10-05 18:47:35:690
2.068,3.486,8.996,1.076,4.02,8.88,0.958,-0.589,-0.028,-1.1,-1.3,-7.0,0.0,-19.7,-45.2,10.7,154.5,-24.4,-6.8,5.0,29.87,12.84107,77.65978,,944.6733398,,50.0,,1 / 1,911,2017-10-05 18:47:35:700
2.068,3.486,8.996,1.076,4.02,8.88,0.958,-0.589,-0.028,-1.1,-1.3,-7.0,0.0,-19.7,-45.2,10.7,154.5,-24.4,-6.8,5.0,29.87,12.84107,77.65978,,944.6733398,,50.0,,1 / 1,921,2017-10-05 18:47:35:710
1.135,4.263,9.499,1.083,3.987,8.894,0.034,0.207,0.452,-0.7,3.1,-11.5,0.0,-19.6,-45.2,10.6,154.6,-24.2,-6.9,5.0,29.87,12.84107,77.65978,,944.6733398,,50.0,,1 / 1,931,2017-10-05 18:47:35:720
0.684,4.273,9.246,1.057,3.985,8.898,-0.383,0.22,0.2,0.9,6.9,-9.6,0.0,-19.4,-45.2,10.4,154.6,-24.2,-6.9,5.0,29.87,12.84107,77.65978,,944.6733398,,50.0,,1 / 1,941,2017-10-05 18:47:35:730
0.684,4.273,9.246,1.057,3.985,8.898,-0.383,0.22,0.2,0.9,6.9,-9.6,1.066,-19.4,-45.2,10.4,154.6,-24.2,-6.9,5.0,29.87,12.84107,77.65978,,944.6733398,,50.0,,1 / 1,951,2017-10-05 18:47:35:740
1.191,3.956,9.258,1.035,3.984,8.901,0.137,-0.091,0.209,1.7,9.0,-8.4,1.066,-19.4,-45.2,10.4,154.6,-24.2,-6.9,5.0,29.87,12.84107,77.65978,,944.6733398,,50.0,,1 / 1,960,2017-10-05 18:47:35:749
1.191,3.956,9.258,1.035,3.984,8.901,0.137,-0.091,0.209,1.7,9.0,-8.4,1.066,-19.4,-45.2,10.4,154.6,-24.2,-6.9,5.0,29.87,12.84107,77.65978,,944.6733398,,50.0,,1 / 1,971,2017-10-05 18:47:35:760
0.88,4.163,9.245,1.004,3.99,8.902,-0.138,0.107,0.195,0.9,6.0,-10.9,1.066,-19.3,-45.1,10.6,155.7,-24.0,-6.6,5.0,29.87,12.84107,77.65978,,944.6733398,,50.0,,1 / 1,981,2017-10-05 18:47:35:770
0.386,4.373,9.109,0.978,3.989,8.905,-0.598,0.314,0.057,-0.8,2.3,-8.5,1.066,-19.2,-45.2,10.4,155.7,-24.0,-6.6,5.0,29.87,12.84107,77.65978,,944.6733398,,50.0,,1 / 1,991,2017-10-05 18:47:35:780
0.635,4.361,9.179,0.978,3.979,8.91,-0.353,0.312,0.122,-2.9,0.4,-3.8,1.066,-19.3,-45.2,10.4,155.7,-24.0,-6.6,5.0,29.87,12.84107,77.65978,,944.6733398,,50.0,,1 / 1,1001,2017-10-05 18:47:35:790
0.635,4.361,9.179,0.978,3.979,8.91,-0.353,0.312,0.122,-2.9,0.4,-3.8,1.066,-19.3,-45.2,10.4,155.7,-24.0,-6.6,5.0,29.87,12.84107,77.65978,,944.6733398,,50.0,,1 / 1,1011,2017-10-05 18:47:35:800
0.789,4.326,9.402,0.946,3.979,8.913,-0.17,0.278,0.338,-2.9,0.4,-3.8,1.066,-19.3,-45.1,10.4,155.7,-23.9,-6.3,5.0,29.87,12.84107,77.65978,,944.6733398,,50.0,,1 / 1,1021,2017-10-05 18:47:35:810
0.789,4.326,9.402,0.946,3.979,8.913,-0.17,0.278,0.338,-2.4,4.1,-1.0,1.066,-19.3,-45.1,10.4,155.7,-23.9,-6.3,5.0,29.87,12.84107,77.65978,,944.6733398,,50.0,,1 / 1,1031,2017-10-05 18:47:35:820
0.765,4.304,9.428,0.88,4.003,8.909,-0.127,0.233,0.367,1.3,9.1,-0.4,1.066,-19.1,-45.0,10.0,155.7,-23.9,-6.3,5.0,29.87,12.84107,77.65978,,944.6733398,,50.0,,1 / 1,1041,2017-10-05 18:47:35:830
0.765,4.304,9.428,0.88,4.003,8.909,-0.127,0.233,0.367,3.6,10.6,0.3,1.066,-19.1,-45.0,10.0,155.7,-23.9,-6.3,5.0,29.87,12.84107,77.65978,,944.6733398,,50.0,,1 / 1,1051,2017-10-05 18:47:35:840
0.356,4.365,9.154,0.841,4.023,8.904,-0.49,0.272,0.103,3.6,10.6,0.3,1.066,-18.9,-44.9,9.7,155.9,-24.1,-5.6,5.0,29.87,12.84107,77.65978,,944.6733398,,50.0,,1 / 1,1061,2017-10-05 18:47:35:850
0.356,4.365,9.154,0.841,4.023,8.904,-0.49,0.272,0.103,0.6,4.1,1.8,1.066,-18.9,-44.9,9.7,155.9,-24.1,-5.6,5.0,29.87,12.84107,77.65978,,944.6733398,,50.0,,1 / 1,1072,2017-10-05 18:47:35:861
0.356,4.365,9.154,0.841,4.023,8.904,-0.49,0.272,0.103,0.6,4.1,1.8,1.066,-18.9,-44.9,9.7,155.9,-24.1,-5.6,5.0,29.87,12.84107,77.65978,,944.6733398,,50.0,,1 / 1,1081,2017-10-05 18:47:35:870
1.213,3.589,9.125,0.818,4.029,8.903,0.375,-0.498,0.076,0.6,4.1,1.8,1.066,-19.0,-45.1,9.8,155.9,-24.1,-5.6,5.0,29.87,12.84107,77.65978,,944.6733398,,50.0,,1 / 1,1091,2017-10-05 18:47:35:880
1.631,3.95,9.209,0.832,4.016,8.908,0.773,-0.129,0.153,-2.9,-2.0,3.4,1.066,-19.4,-44.8,10.1,155.9,-24.3,-5.3,5.0,29.87,12.84107,77.65978,,944.6733398,,50.0,,1 / 1,1101,2017-10-05 18:47:35:890
1.631,3.95,9.209,0.832,4.016,8.908,0.773,-0.129,0.153,-7.1,-8.1,5.6,1.066,-19.4,-44.8,10.1,155.9,-24.3,-5.3,5.0,29.87,12.84107,77.65978,,944.6733398,,50.0,,1 / 1,1111,2017-10-05 18:47:35:900
1.631,3.95,9.209,0.832,4.016,8.908,0.773,-0.129,0.153,-7.1,-8.1,5.6,0.0,-19.4,-44.8,10.1,155.9,-24.3,-5.3,5.0,29.87,12.84107,77.65978,,944.6733398,,50.0,,1 / 1,1122,2017-10-05 18:47:35:911
1.183,4.202,9.312,0.831,3.995,8.918,0.332,0.139,0.245,-11.5,-12.3,5.8,0.0,-19.7,-44.8,10.1,155.9,-24.3,-5.3,5.0,29.87,12.84107,77.65978,,944.6733398,,50.0,,1 / 1,1131,2017-10-05 18:47:35:920
1.183,4.202,9.312,0.831,3.995,8.918,0.332,0.139,0.245,-13.6,-14.4,5.3,0.0,-19.7,-44.8,10.1,155.9,-24.3,-5.3,5.0,29.87,12.84107,77.65978,,944.6733398,,50.0,,1 / 1,1141,2017-10-05 18:47:35:930
0.825,4.347,9.54,0.891,3.953,8.93,-0.079,0.325,0.457,-13.6,-14.4,5.3,0.0,-19.6,-44.8,10.2,154.9,-24.0,-5.3,5.0,29.87,12.84107,77.65978,,944.6733398,,50.0,,1 / 1,1151,2017-10-05 18:47:35:940
0.825,4.347,9.54,0.891,3.953,8.93,-0.079,0.325,0.457,-11.5,-9.4,2.8,0.0,-19.6,-44.8,10.2,154.9,-24.0,-5.3,5.0,29.87,12.84107,77.65978,,944.6733398,,50.0,,1 / 1,1161,2017-10-05 18:47:35:950
0.452,4.412,9.786,0.976,3.903,8.943,-0.531,0.438,0.685,-11.5,-9.4,2.8,0.0,-19.7,-44.7,9.9,154.9,-24.0,-5.3,5.0,29.87,12.84107,77.65978,,944.6733398,,50.0,,1 / 1,1171,2017-10-05 18:47:35:960
0.452,4.412,9.786,0.976,3.903,8.943,-0.531,0.438,0.685,3.1,10.4,0.6,0.0,-19.7,-44.7,9.9,154.9,-24.0,-5.3,5.0,29.87,12.84107,77.65978,,944.6733398,,50.0,,1 / 1,1181,2017-10-05 18:47:35:970
0.245,4.432,10.342,0.913,3.913,8.946,-0.671,0.448,1.23,21.0,32.7,-2.4,0.0,-19.8,-44.7,9.7,154.7,-23.5,-6.2,5.0,29.87,12.84107,77.65978,,944.6733398,,50.0,,1 / 1,1191,2017-10-05 18:47:35:980
0.083,4.553,9.442,0.858,3.944,8.937,-0.777,0.536,0.353,21.0,32.7,-2.4,0.0,-20.2,-44.5,9.6,154.7,-23.5,-6.2,5.0,28.88,12.84107,77.65978,,944.6733398,,50.0,,1 / 1,1201,2017-10-05 18:47:35:990
0.083,4.553,9.442,0.858,3.944,8.937,-0.777,0.536,0.353,28.6,36.0,-5.7,0.0,-20.2,-44.5,9.6,154.7,-23.5,-6.2,5.0,28.88,12.84107,77.65978,,944.6733398,,50.0,,1 / 1,1211,2017-10-05 18:47:36:000
0.083,4.553,9.442,0.858,3.944,8.937,-0.777,0.536,0.353,28.6,36.0,-5.7,0.0,-20.2,-44.5,9.6,154.7,-23.5,-6.2,5.0,28.88,12.84107,77.65978,,944.6733398,,50.0,,1 / 1,1221,2017-10-05 18:47:36:010
-0.343,4.517,8.645,0.737,4.029,8.91,-1.074,0.416,-0.405,22.0,25.7,-6.2,0.0,-20.3,-44.5,9.6,154.8,-23.7,-5.5,5.0,28.88,12.84107,77.65978,,944.6733398,,50.0,,1 / 1,1231,2017-10-05 18:47:36:020
-0.343,4.517,8.645,0.737,4.029,8.91,-1.074,0.416,-0.405,6.1,9.6,-3.8,0.0,-20.3,-44.5,9.6,154.8,-23.7,-5.5,5.0,28.88,12.84107,77.65978,,944.6733398,,50.0,,1 / 1,1241,2017-10-05 18:47:36:030
-0.348,4.406,8.175,0.649,4.077,8.895,-0.992,0.258,-0.852,6.1,9.6,-3.8,0.0,-20.3,-44.5,9.4,154.8,-23.7,-5.5,5.0,28.88,12.84107,77.65978,,944.6733398,,50.0,,1 / 1,1251,2017-10-05 18:47:36:040
-0.348,4.406,8.175,0.649,4.077,8.895,-0.992,0.258,-0.852,-14.7,3.0,-0.6,0.0,-20.3,-44.5,9.4,154.8,-23.7,-5.5,5.0,28.88,12.84107,77.65978,,944.6733398,,50.0,,1 / 1,1261,2017-10-05 18:47:36:050
-0.475,4.453,7.05,0.577,4.1,8.89,-1.044,0.281,-1.953,-14.7,3.0,-0.6,0.0,-20.0,-44.9,9.2,154.9,-24.6,-4.2,5.0,28.88,12.84107,77.65978,,944.6733398,,50.0,,1 / 1,1271,2017-10-05 18:47:36:060
-0.504,5.105,7.457,0.556,4.058,8.91,-1.052,0.964,-1.573,-31.8,5.0,2.0,0.0,-20.0,-44.9,9.2,154.9,-24.6,-4.2,5.0,28.88,12.84107,77.65978,,944.6733398,,50.0,,1 / 1,1281,2017-10-05 18:47:36:070
-0.504,5.105,7.457,0.556,4.058,8.91,-1.052,0.964,-1.573,-39.1,20.6,6.6,0.0,-20.0,-44.9,9.2,154.9,-24.6,-4.2,5.0,28.88,12.84107,77.65978,,944.6733398,,50.0,,1 / 1,1291,2017-10-05 18:47:36:080
-0.588,5.323,8.35,0.495,4.0,8.94,-1.074,1.237,-0.723,-39.1,20.6,6.6,0.0,-19.9,-44.9,8.9,154.9,-24.6,-4.2,5.0,28.88,12.84107,77.65978,,944.6733398,,50.0,,1 / 1,1301,2017-10-05 18:47:36:090
-0.588,5.323,8.35,0.495,4.0,8.94,-1.074,1.237,-0.723,-39.1,20.6,6.6,0.0,-19.9,-44.9,8.9,154.9,-24.6,-4.2,5.0,28.88,12.84107,77.65978,,944.6733398,,50.0,,1 / 1,1311,2017-10-05 18:47:36:100
-0.073,3.477,9.567,0.353,3.919,8.983,-0.425,-0.498,0.431,-37.5,39.1,7.1,0.0,-20.0,-45.0,8.7,155.2,-24.1,-3.2,5.0,28.88,12.84107,77.65978,,944.6733398,,50.0,,1 / 1,1321,2017-10-05 18:47:36:110
-0.073,3.477,9.567,0.353,3.919,8.983,-0.425,-0.498,0.431,-34.8,33.2,2.8,0.0,-20.0,-45.0,8.7,155.2,-24.1,-3.2,5.0,28.88,12.84107,77.65978,,944.6733398,,50.0,,1 / 1,1331,2017-10-05 18:47:36:120
-2.416,3.946,9.428,0.269,3.876,9.004,-2.646,0.006,0.273,-34.8,33.2,2.8,0.0,-20.0,-44.9,8.5,155.2,-24.1,-3.2,5.0,28.88,12.84107,77.65978,,944.6733398,,50.0,,1 / 1,1342,2017-10-05 18:47:36:131
-2.416,3.946,9.428,0.269,3.876,9.004,-2.646,0.006,0.273,-45.5,7.0,7.3,0.0,-20.0,-44.9,8.5,155.2,-24.1,-3.2,5.0,28.88,12.84107,77.65978,,944.6733398,,50.0,,1 / 1,1351,2017-10-05 18:47:36:140
-2.112,3.722,6.521,0.25,3.732,9.065,-2.329,-0.07,-2.649,-63.3,-33.4,12.2,0.0,-20.0,-45.1,8.2,155.4,-23.3,-1.7,5.0,28.88,12.84107,77.65978,,944.6733398,,50.0,,1 / 1,1363,2017-10-05 18:47:36:152
-2.112,3.722,6.521,0.25,3.732,9.065,-2.329,-0.07,-2.649,-63.3,-33.4,12.2,0.0,-20.0,-45.1,8.2,155.4,-23.3,-1.7,5.0,28.88,12.84107,77.65978,,944.6733398,,50.0,,1 / 1,1372,2017-10-05 18:47:36:161
-0.074,2.724,6.204,0.362,3.48,9.161,-0.435,-0.799,-3.057,-78.0,-34.4,11.2,0.0,-20.0,-45.2,7.8,155.4,-23.3,-1.7,5.0,28.88,12.84107,77.65978,,944.6733398,,50.0,,1 / 1,1383,2017-10-05 18:47:36:172
-0.074,2.724,6.204,0.303,3.427,9.183,-0.376,-0.746,-3.079,-78.0,-34.4,11.2,0.0,-20.2,-45.2,7.4,155.4,-23.3,-1.7,5.0,28.88,12.84107,77.65978,,944.6733398,,50.0,,1 / 1,1391,2017-10-05 18:47:36:180
-0.074,2.724,6.204,0.303,3.427,9.183,-0.376,-0.746,-3.079,-80.3,-9.8,-6.6,0.0,-20.2,-45.2,7.4,155.4,-23.3,-1.7,5.0,28.88,12.84107,77.65978,,944.6733398,,50.0,,1 / 1,1401,2017-10-05 18:47:36:190
-0.463,1.704,6.968,0.195,3.222,9.26,-0.65,-1.545,-2.404,-80.3,-9.8,-6.6,0.0,-20.3,-44.8,6.8,155.5,-20.5,-1.9,5.0,28.88,12.84107,77.65978,,944.6733398,,50.0,,1 / 1,1411,2017-10-05 18:47:36:200
-0.463,1.704,6.968,0.195,3.222,9.26,-0.65,-1.545,-2.404,-73.1,-0.8,-29.7,0.0,-20.3,-44.8,6.8,155.5,-20.5,-1.9,5.0,28.88,12.84107,77.65978,,944.6733398,,50.0,,1 / 1,1421,2017-10-05 18:47:36:210
-2.083,1.489,6.614,0.249,3.011,9.33,-2.299,-1.546,-2.822,-62.6,-18.0,-49.0,0.0,-20.8,-44.5,6.1,155.5,-20.5,-1.9,5.0,28.88,12.84107,77.65978,,944.6733398,,50.0,,1 / 1,1431,2017-10-05 18:47:36:220
-2.083,1.489,6.614,0.249,3.011,9.33,-2.299,-1.546,-2.822,-62.6,-18.0,-49.0,0.0,-20.8,-44.5,6.1,155.5,-20.5,-1.9,5.0,28.88,12.84107,77.65978,,944.6733398,,50.0,,1 / 1,1442,2017-10-05 18:47:36:231
-6.388,2.989,9.136,0.238,2.82,9.389,-6.523,0.121,-0.4,-41.6,-24.3,-30.3,0.0,-21.0,-44.5,5.2,154.4,-17.9,-1.5,5.0,28.88,12.84107,77.65978,,944.6733398,,50.0,,1 / 2,1450,2017-10-05 18:47:36:239
-5.363,4.503,7.196,0.238,2.82,9.389,-5.468,1.668,-2.327,-25.9,23.0,17.2,0.0,-21.0,-44.5,5.2,154.4,-17.9,-1.5,5.0,28.88,12.84107,77.65978,,944.6733398,,50.0,,1 / 2,1461,2017-10-05 18:47:36:250
-5.363,4.503,7.196,0.144,2.707,9.425,-5.468,1.668,-2.327,-25.9,23.0,17.2,0.0,-21.0,-44.5,5.2,154.4,-17.9,-1.5,5.0,28.88,12.84107,77.65978,,944.6733398,,50.0,,1 / 2,1470,2017-10-05 18:47:36:259
-3.326,3.319,6.686,0.144,2.707,9.425,-3.243,0.646,-2.872,-25.9,23.0,17.2,0.0,-21.1,-44.4,4.0,154.4,-17.9,-1.5,5.0,28.88,12.84107,77.65978,,944.6733398,,50.0,,1 / 2,1481,2017-10-05 18:47:36:270
-3.326,3.319,6.686,-0.239,2.594,9.454,-3.034,0.671,-2.876,-11.1,98.4,49.7,0.0,-20.8,-44.5,3.1,153.9,-16.0,-0.9,5.0,28.88,12.84107,77.65978,,944.6733398,,50.0,,1 / 2,1491,2017-10-05 18:47:36:280
-0.018,0.393,4.124,-0.758,2.612,9.422,0.74,-2.224,-5.364,0.6,157.4,45.8,0.0,-20.8,-44.5,2.2,153.9,-16.0,-0.9,5.0,28.88,12.84107,77.65978,,944.6733398,,50.0,,1 / 2,1502,2017-10-05 18:47:36:291
-0.018,0.393,4.124,-0.758,2.612,9.422,0.74,-2.224,-5.364,2.2,156.6,22.3,0.0,-20.8,-44.5,2.2,153.9,-16.0,-0.9,5.0,28.88,12.84107,77.65978,,944.6733398,,50.0,,1 / 2,1511,2017-10-05 18:47:36:300
-0.018,0.393,4.124,-0.758,2.612,9.422,0.74,-2.224,-5.364,2.2,156.6,22.3,0.0,-20.8,-44.5,2.2,153.9,-16.0,-0.9,5.0,28.88,12.84107,77.65978,,944.6733398,,50.0,,1 / 2,1521,2017-10-05 18:47:36:310
-0.106,-1.002,3.303,-1.518,2.732,9.295,1.413,-3.718,-6.045,2.2,156.6,22.3,0.0,-20.6,-44.6,1.7,154.9,-15.4,4.6,5.0,28.88,12.84107,77.65978,,944.6733398,,50.0,,1 / 2,1532,2017-10-05 18:47:36:321
-0.106,-1.002,3.303,-1.518,2.732,9.295,1.413,-3.718,-6.045,-2.8,100.8,-28.8,0.0,-20.6,-44.6,1.7,154.9,-15.4,4.6,5.0,28.88,12.84107,77.65978,,944.6733398,,50.0,,1 / 2,1542,2017-10-05 18:47:36:331
-2.122,-3.538,1.081,-1.967,2.649,9.235,-0.121,-6.13,-8.171,-27.8,123.5,-63.9,0.0,-20.2,-44.6,0.5,154.9,-15.4,4.6,5.0,28.88,12.84107,77.65978,,944.6733398,,50.0,,1 / 2,1551,2017-10-05 18:47:36:340
0.897,-4.237,-0.774,-2.36,2.538,9.174,3.242,-6.707,-9.935,-27.8,123.5,-63.9,0.0,-20.2,-44.6,0.5,154.9,-15.4,4.6,5.0,28.88,12.84107,77.65978,,944.6733398,,50.0,,1 / 2,1561,2017-10-05 18:47:36:350
0.897,-4.237,-0.774,-2.36,2.538,9.174,3.242,-6.707,-9.935,-40.4,223.7,-89.8,0.0,-20.2,-44.6,0.5,154.9,-15.4,4.6,5.0,43.39,12.84107,77.65978,,944.6733398,,50.0,,1 / 2,1571,2017-10-05 18:47:36:360
1.353,-5.869,-1.707,-3.074,2.321,9.019,4.405,-8.095,-10.698,-40.4,223.7,-89.8,0.0,-20.0,-45.0,-0.2,156.6,-15.0,14.4,5.0,43.39,12.84107,77.65978,,944.6733398,,50.0,,1 / 2,1581,2017-10-05 18:47:36:370
1.353,-5.869,-1.707,-3.074,2.321,9.019,4.405,-8.095,-10.698,-29.9,347.8,-117.2,0.0,-20.0,-45.0,-0.2,156.6,-15.0,14.4,5.0,43.39,12.84107,77.65978,,944.6733398,,50.0,,1 / 2,1591,2017-10-05 18:47:36:380
0.786,-7.76,-3.299,-4.15,1.899,8.68,4.923,-9.534,-11.926,-40.9,472.5,-150.2,0.0,-19.4,-45.5,-1.2,156.6,-15.0,14.4,5.0,43.39,12.84107,77.65978,,944.6733398,,50.0,,1 / 2,1601,2017-10-05 18:47:36:390
0.786,-7.76,-3.299,-4.15,1.899,8.68,4.923,-9.534,-11.926,-40.9,555.0,-210.8,0.0,-19.4,-45.5,-1.2,156.6,-15.0,14.4,5.0,43.39,12.84107,77.65978,,944.6733398,,50.0,,1 / 2,1611,2017-10-05 18:47:36:400
-0.055,-10.512,-3.23,-5.754,1.182,7.853,5.699,-11.525,-11.032,-67.6,555.0,-210.8,0.0,-18.5,-45.9,-2.0,158.8,-11.2,25.5,5.0,43.39,12.84107,77.65978,,944.6733398,,50.0,,1 / 2,1621,2017-10-05 18:47:36:410
-0.055,-10.512,-3.23,-5.754,1.182,7.853,5.699,-11.525,-11.032,-102.4,598.6,-274.9,1.066,-18.5,-45.9,-2.0,158.8,-11.2,25.5,5.0,43.39,12.84107,77.65978,,944.6733398,,50.0,,1 / 2,1631,2017-10-05 18:47:36:420
-3.849,-12.813,-1.543,-6.916,0.213,6.949,3.129,-12.82,-8.467,-113.5,624.5,-330.7,1.066,-17.3,-46.4,-3.3,158.8,-11.2,25.5,5.0,43.39,12.84107,77.65978,,944.6733398,,50.0,,1 / 2,1641,2017-10-05 18:47:36:430
-3.849,-12.813,-1.543,-6.916,0.213,6.949,3.129,-12.82,-8.467,-113.5,624.5,-330.7,1.066,-17.3,-46.4,-3.3,158.8,-11.2,25.5,5.0,43.39,12.84107,77.65978,,944.6733398,,50.0,,1 / 2,1651,2017-10-05 18:47:36:440
-6.783,-16.083,2.061,-8.001,-0.982,5.585,1.327,-14.842,-3.557,-113.5,624.5,-330.7,1.066,-15.5,-47.0,-4.7,163.3,-1.2,44.9,5.0,43.39,12.84107,77.65978,,944.6733398,,50.0,,1 / 2,1661,2017-10-05 18:47:36:450
-6.783,-16.083,2.061,-8.001,-0.982,5.585,1.327,-14.842,-3.557,-87.0,638.7,-383.6,1.066,-15.5,-47.0,-4.7,163.3,-1.2,44.9,5.0,43.39,12.84107,77.65978,,944.6733398,,50.0,,1 / 2,1670,2017-10-05 18:47:36:459
-12.283,-20.577,8.974,-8.612,-2.595,3.908,-3.474,-17.652,4.921,-87.0,638.7,-383.6,1.066,-12.6,-47.4,-6.4,163.3,-1.2,44.9,5.0,43.39,12.84107,77.65978,,944.6733398,,50.0,,1 / 2,1681,2017-10-05 18:47:36:470
-12.283,-20.577,8.974,-8.612,-2.595,3.908,-3.474,-17.652,4.921,-32.7,630.5,-437.0,1.066,-12.6,-47.4,-6.4,163.3,-1.2,44.9,5.0,43.39,12.84107,77.65978,,944.6733398,,50.0,,1 / 2,1691,2017-10-05 18:47:36:480
-17.076,-19.771,10.951,-8.535,-4.112,2.533,-8.267,-15.342,8.242,25.7,551.9,-480.3,1.066,-8.5,-47.4,-8.3,166.0,15.3,65.6,5.0,43.39,12.84107,77.65978,,944.6733398,,50.0,,1 / 2,1701,2017-10-05 18:47:36:490
-17.076,-19.771,10.951,-8.535,-4.112,2.533,-8.267,-15.342,8.242,52.7,397.6,-485.6,1.066,-8.5,-47.4,-8.3,166.0,15.3,65.6,5.0,43.39,12.84107,77.65978,,944.6733398,,50.0,,1 / 2,1711,2017-10-05 18:47:36:500
-23.151,-17.96,10.995,-7.918,-5.585,1.509,-14.861,-12.087,9.309,52.7,397.6,-485.6,1.066,-3.1,-47.2,-9.4,166.0,15.3,65.6,5.0,43.39,12.84107,77.65978,,944.6733398,,50.0,,1 / 2,1721,2017-10-05 18:47:36:510
-23.151,-17.96,10.995,-7.918,-5.585,1.509,-14.861,-12.087,9.309,68.6,211.1,-425.6,1.066,-3.1,-47.2,-9.4,166.0,15.3,65.6,5.0,43.39,12.84107,77.65978,,944.6733398,,50.0,,1 / 2,1731,2017-10-05 18:47:36:520
-26.897,-13.874,13.082,-6.981,-6.711,1.551,-19.484,-6.94,11.321,81.3,22.6,-327.8,1.066,3.5,-46.3,-9.8,167.6,34.7,79.2,5.0,43.39,12.84107,77.65978,,944.6733398,,50.0,,1 / 2,1741,2017-10-05 18:47:36:530
-26.897,-13.874,13.082,-6.981,-6.711,1.551,-19.484,-6.94,11.321,81.3,22.6,-327.8,1.066,3.5,-46.3,-9.8,167.6,34.7,79.2,5.0,43.39,12.84107,77.65978,,944.6733398,,50.0,,1 / 2,1751,2017-10-05 18:47:36:540
-26.554,-10.704,13.253,-6.134,-7.531,1.352,-19.993,-3.001,11.688,83.0,-136.3,-247.0,1.066,10.7,-44.4,-9.0,167.6,34.7,79.2,5.0,43.39,12.84107,77.65978,,944.6733398,,50.0,,1 / 2,1761,2017-10-05 18:47:36:550
-21.758,-12.737,11.018,-5.752,-7.763,1.681,-15.656,-4.77,9.159,83.0,-136.3,-247.0,1.066,18.1,-41.1,-7.6,167.6,34.7,79.2,5.0,43.39,12.84107,77.65978,,944.6733398,,50.0,,1 / 2,1771,2017-10-05 18:47:36:560
-21.758,-12.737,11.018,-5.752,-7.763,1.681,-15.656,-4.77,9.159,83.0,-136.3,-247.0,1.066,18.1,-41.1,-7.6,167.6,34.7,79.2,5.0,43.39,12.84107,77.65978,,944.6733398,,50.0,,1 / 2,1781,2017-10-05 18:47:36:570
-18.566,-14.96,9.581,-4.856,-8.324,1.816,-13.411,-6.395,7.611,71.8,-215.1,-222.4,1.066,25.0,-37.0,-5.5,183.0,52.3,73.7,5.0,43.39,12.84107,77.65978,,944.6733398,,50.0,,1 / 2,1793,2017-10-05 18:47:36:582
-18.566,-14.96,9.581,-4.856,-8.324,1.816,-13.411,-6.395,7.611,92.8,-194.6,-217.6,0.0,25.0,-37.0,-5.5,183.0,52.3,73.7,0.0,43.39,12.84107,77.65978,,944.6733398,,50.0,,1 / 2,1802,2017-10-05 18:47:36:591
-18.566,-14.96,9.581,-4.856,-8.324,1.816,-13.411,-6.395,7.611,92.8,-194.6,-217.6,0.0,25.0,-37.0,-5.5,183.0,52.3,73.7,0.0,43.39,12.84107,77.65978,,944.6733398,,50.0,,1 / 2,1811,2017-10-05 18:47:36:600
-17.976,-13.398,9.299,-4.056,-8.622,2.32,-13.631,-4.56,6.83,92.8,-194.6,-217.6,0.0,31.4,-31.9,-3.6,183.0,52.3,73.7,0.0,43.39,12.84107,77.65978,,944.6733398,,50.0,,1 / 2,1821,2017-10-05 18:47:36:610
-17.976,-13.398,9.299,-4.056,-8.622,2.32,-13.631,-4.56,6.83,160.2,-26.7,-165.0,0.0,31.4,-31.9,-3.6,183.0,52.3,73.7,0.0,43.39,12.84107,77.65978,,944.6733398,,50.0,,1 / 2,1832,2017-10-05 18:47:36:621
-20.415,-8.378,4.185,-3.024,-8.762,3.201,-17.063,0.519,0.916,105.9,-74.5,-116.4,0.0,36.8,-26.5,-1.8,201.6,61.5,60.2,0.0,43.39,12.84107,77.65978,,944.6733398,,50.0,,1 / 2,1842,2017-10-05 18:47:36:631
-20.415,-8.378,4.185,-3.024,-8.762,3.201,-17.063,0.519,0.916,105.9,-74.5,-116.4,0.0,36.8,-26.5,-1.8,201.6,61.5,60.2,0.0,43.39,12.84107,77.65978,,944.6733398,,50.0,,1 / 2,1851,2017-10-05 18:47:36:640
-23.131,-6.768,0.634,-2.589,-8.733,3.634,-20.171,2.073,-3.011,105.9,-74.5,-116.4,0.0,40.9,-20.9,-0.3,201.6,61.5,60.2,0.0,43.39,12.84107,77.65978,,944.6733398,,50.0,,1 / 2,1861,2017-10-05 18:47:36:650
-23.131,-6.768,0.634,-2.589,-8.733,3.634,-20.171,2.073,-3.011,40.8,-177.6,-34.5,0.0,40.9,-20.9,-0.3,201.6,61.5,60.2,0.0,43.39,12.84107,77.65978,,944.6733398,,50.0,,1 / 2,1872,2017-10-05 18:47:36:661
-16.783,-8.464,7.648,-2.347,-8.676,3.922,-14.167,0.348,3.604,48.0,-222.5,60.5,0.0,43.6,-15.3,0.5,231.6,62.9,35.5,0.0,36.82,12.84107,77.65978,,944.6733398,,50.0,,1 / 2,1882,2017-10-05 18:47:36:671
-16.783,-8.464,7.648,-2.347,-8.676,3.922,-14.167,0.348,3.604,48.0,-222.5,60.5,0.0,43.6,-15.3,0.5,231.6,62.9,35.5,0.0,36.82,12.84107,77.65978,,944.6733398,,50.0,,1 / 2,1891,2017-10-05 18:47:36:680
-13.881,-7.956,1.66,-2.12,-8.625,4.158,-11.537,0.797,-2.524,50.0,-257.7,101.5,0.0,45.1,-10.0,0.6,231.6,62.9,35.5,0.0,36.82,12.84107,77.65978,,944.6733398,,50.0,,1 / 2,1901,2017-10-05 18:47:36:690
-13.881,-7.956,1.66,-2.12,-8.625,4.158,-11.537,0.797,-2.524,50.0,-257.7,101.5,0.0,45.1,-10.0,0.6,231.6,62.9,35.5,0.0,36.82,12.84107,77.65978,,944.6733398,,50.0,,1 / 2,1911,2017-10-05 18:47:36:700
-12.077,-9.064,1.72,-2.119,-8.545,4.32,-9.765,-0.374,-2.628,24.2,-286.8,123.9,0.0,45.7,-5.6,-0.6,241.5,61.6,27.0,0.0,36.82,12.84107,77.65978,,944.6733398,,50.0,,1 / 2,1921,2017-10-05 18:47:36:710
-12.077,-9.064,1.72,-2.119,-8.545,4.32,-9.765,-0.374,-2.628,15.6,-254.6,131.2,0.0,45.7,-5.6,-0.6,241.5,61.6,27.0,0.0,36.82,12.84107,77.65978,,944.6733398,,50.0,,1 / 2,1931,2017-10-05 18:47:36:720
-9.533,-8.121,2.463,-2.115,-8.381,4.631,-7.265,0.391,-2.208,15.6,-254.6,131.2,0.0,45.8,-2.7,-2.8,241.5,61.6,27.0,0.0,36.82,12.84107,77.65978,,944.6733398,,50.0,,1 / 2,1941,2017-10-05 18:47:36:730
-9.533,-8.121,2.463,-2.115,-8.381,4.631,-7.265,0.391,-2.208,17.0,-170.3,124.0,0.0,45.8,-2.7,-2.8,241.5,61.6,27.0,0.0,36.82,12.84107,77.65978,,944.6733398,,50.0,,1 / 2,1951,2017-10-05 18:47:36:740
-7.339,-7.195,4.196,-2.144,-8.265,4.823,-5.077,1.186,-0.695,11.6,-86.2,109.8,0.0,45.7,-1.1,-5.6,241.3,58.7,24.5,0.0,36.82,12.84107,77.65978,,944.6733398,,50.0,,1 / 2,1961,2017-10-05 18:47:36:750
-7.339,-7.195,4.196,-2.144,-8.265,4.823,-5.077,1.186,-0.695,11.6,-86.2,109.8,0.0,45.7,-1.1,-5.6,241.3,58.7,24.5,0.0,36.82,12.84107,77.65978,,944.6733398,,50.0,,1 / 2,1971,2017-10-05 18:47:36:760
-5.53,-4.086,4.203,-2.426,-8.219,4.767,-3.015,4.2,-0.632,17.7,-21.8,109.8,0.0,45.0,-0.2,-8.6,241.3,58.7,24.5,0.0,36.82,12.84107,77.65978,,944.6733398,,50.0,,1 / 2,1981,2017-10-05 18:47:36:770
-5.53,-4.086,4.203,-2.426,-8.219,4.767,-3.015,4.2,-0.632,17.7,-21.8,109.8,0.0,45.0,-0.2,-8.6,241.3,58.7,24.5,0.0,36.82,12.84107,77.65978,,944.6733398,,50.0,,1 / 2,1991,2017-10-05 18:47:36:780
-8.236,-2.888,4.507,-2.672,-8.093,4.851,-5.431,5.251,-0.417,9.7,24.4,111.2,0.0,44.0,-0.4,-11.6,232.7,56.9,27.0,0.0,36.82,12.84107,77.65978,,944.6733398,,50.0,,1 / 2,2001,2017-10-05 18:47:36:790
-8.236,-2.888,4.507,-2.672,-8.093,4.851,-5.431,5.251,-0.417,7.8,55.5,144.7,0.0,44.0,-0.4,-11.6,232.7,56.9,27.0,0.0,36.82,12.84107,77.65978,,944.6733398,,50.0,,1 / 2,2011,2017-10-05 18:47:36:800
-9.324,-0.709,5.613,-3.09,-7.921,4.887,-6.084,7.223,0.636,7.8,55.5,144.7,0.0,43.0,-1.4,-14.3,232.7,56.9,27.0,0.0,36.82,12.84107,77.65978,,944.6733398,,50.0,,1 / 2,2021,2017-10-05 18:47:36:810
-9.324,-0.709,5.613,-3.09,-7.921,4.887,-6.084,7.223,0.636,-16.1,64.4,157.3,0.0,43.0,-1.4,-14.3,232.7,56.9,27.0,0.0,36.82,12.84107,77.65978,,944.6733398,,50.0,,1 / 2,2031,2017-10-05 18:47:36:820
-4.309,-1.984,-0.114,-3.663,-7.718,4.816,-0.577,5.765,-4.928,-16.1,64.4,157.3,0.0,42.1,-2.7,-16.6,215.4,51.9,37.3,0.0,36.82,12.84107,77.65978,,944.6733398,,50.0,,1 / 2,2041,2017-10-05 18:47:36:830
-4.309,-1.984,-0.114,-3.663,-7.718,4.816,-0.577,5.765,-4.928,-64.3,47.0,135.6,0.0,42.1,-2.7,-16.6,215.4,51.9,37.3,0.0,36.82,12.84107,77.65978,,944.6733398,,50.0,,1 / 2,2051,2017-10-05 18:47:36:840
2.166,-5.246,3.881,-4.067,-7.585,4.7,6.198,2.424,-0.882,-70.1,56.9,112.6,0.0,41.0,-4.7,-18.8,215.4,51.9,37.3,0.0,36.82,12.84107,77.65978,,944.6733398,,50.0,,1 / 2,2061,2017-10-05 18:47:36:850
2.166,-5.246,3.881,-4.067,-7.585,4.7,6.198,2.424,-0.882,-70.1,56.9,112.6,0.0,41.0,-4.7,-18.8,215.4,51.9,37.3,0.0,36.82,12.84107,77.65978,,944.6733398,,50.0,,1 / 2,2072,2017-10-05 18:47:36:861
-2.051,-5.719,3.526,-4.562,-7.429,4.492,2.543,1.801,-1.022,-63.9,69.7,96.9,0.0,40.0,-6.9,-20.9,204.1,50.7,40.9,0.0,36.82,12.84107,77.65978,,944.6733398,,50.0,,1 / 2,2081,2017-10-05 18:47:36:870
-2.051,-5.719,3.526,-4.562,-7.429,4.492,2.543,1.801,-1.022,-63.9,69.7,96.9,0.0,40.0,-6.9,-20.9,204.1,50.7,40.9,0.0,36.82,12.84107,77.65978,,944.6733398,,50.0,,1 / 2,2092,2017-10-05 18:47:36:881
-4.873,-2.753,2.363,-4.957,-7.393,4.117,0.163,4.684,-1.792,-66.3,88.1,94.3,0.0,38.8,-9.1,-22.1,204.1,50.7,40.9,0.0,36.82,12.84107,77.65978,,944.6733398,,50.0,,1 / 2,2101,2017-10-05 18:47:36:890
-4.873,-2.753,2.363,-4.957,-7.393,4.117,0.341,4.634,-1.659,-66.3,88.1,94.3,0.0,38.0,-11.2,-22.9,204.1,50.7,40.9,0.0,36.82,12.84107,77.65978,,944.6733398,,50.0,,1 / 2,2110,2017-10-05 18:47:36:899
-4.873,-2.753,2.363,-5.339,-7.288,3.814,0.341,4.634,-1.659,-72.6,95.3,112.5,0.0,38.0,-11.2,-22.9,204.1,50.7,40.9,0.0,36.82,12.84107,77.65978,,944.6733398,,50.0,,1 / 2,2120,2017-10-05 18:47:36:909
-8.069,-0.492,2.63,-5.339,-7.288,3.814,-2.401,6.744,-1.053,-95.1,77.6,152.0,0.0,37.3,-13.0,-22.7,183.9,48.0,54.5,0.0,36.82,12.84107,77.65978,,944.6733398,,50.0,,1 / 2,2130,2017-10-05 18:47:36:919
-8.069,-0.492,2.63,-5.757,-7.144,3.463,-2.401,6.744,-1.053,-95.1,77.6,152.0,5.33,37.3,-13.0,-22.7,183.9,48.0,54.5,0.0,36.82,12.84107,77.65978,,944.6733398,,50.0,,1 / 2,2141,2017-10-05 18:47:36:930
-9.811,-2.635,0.244,-5.757,-7.144,3.463,-3.617,4.421,-3.006,-127.5,61.4,191.4,5.33,36.8,-14.5,-22.3,183.9,48.0,54.5,0.0,36.82,12.84107,77.65978,,944.6733398,,50.0,,1 / 2,2151,2017-10-05 18:47:36:940
-9.811,-2.635,0.244,-6.309,-6.87,3.029,-3.617,4.421,-3.006,-174.6,61.8,185.9,5.33,36.8,-14.5,-22.3,183.9,48.0,54.5,0.0,36.82,12.84107,77.65978,,944.6733398,,50.0,,1 / 2,2161,2017-10-05 18:47:36:950
-7.708,-7.489,0.343,-6.309,-6.87,3.029,-1.085,-0.58,-2.461,-174.6,61.8,185.9,5.33,36.5,-15.8,-21.7,174.1,44.5,64.4,0.0,36.82,12.84107,77.65978,,944.6733398,,50.0,,1 / 2,2171,2017-10-05 18:47:36:960
-7.708,-7.489,0.343,-6.757,-6.64,2.536,-1.085,-0.58,-2.461,-174.6,61.8,185.9,5.33,36.5,-15.8,-21.7,174.1,44.5,64.4,0.0,29.96,12.84107,77.65978,,944.6733398,,50.0,,1 / 2,2181,2017-10-05 18:47:36:970
-11.571,-6.065,2.425,-6.757,-6.64,2.536,-4.386,0.534,0.171,-211.6,75.8,175.2,5.33,36.1,-17.3,-21.1,174.1,44.5,64.4,0.0,29.96,12.84107,77.65978,,944.6733398,,50.0,,1 / 2,2191,2017-10-05 18:47:36:980
-11.571,-6.065,2.425,-7.258,-6.298,1.956,-4.386,0.534,0.171,-204.9,76.3,184.3,5.33,36.1,-17.3,-21.1,174.1,44.5,64.4,0.0,29.96,12.84107,77.65978,,944.6733398,,50.0,,1 / 2,2201,2017-10-05 18:47:36:990
-12.21,-2.777,5.325,-7.258,-6.298,1.956,-4.52,3.392,3.658,-204.9,76.3,184.3,5.33,35.6,-18.5,-20.7,164.6,40.0,74.9,0.0,29.96,12.84107,77.65978,,944.6733398,,50.0,,1 / 2,2211,2017-10-05 18:47:37:000
-12.21,-2.777,5.325,-7.707,-5.936,1.239,-4.52,3.392,3.658,-205.7,53.4,179.2,5.33,35.6,-18.5,-20.7,164.6,40.0,74.9,0.0,29.96,12.84107,77.65978,,944.6733398,,50.0,,1 / 2,2221,2017-10-05 18:47:37:010
-9.896,-5.162,0.637,-7.707,-5.936,1.239,-1.835,0.656,-0.288,-205.7,53.4,179.2,5.33,35.5,-19.7,-20.5,164.6,40.0,74.9,0.0,29.96,12.84107,77.65978,,944.6733398,,50.0,,1 / 2,2231,2017-10-05 18:47:37:020
-9.896,-5.162,0.637,-8.036,-5.585,0.637,-1.835,0.656,-0.288,-205.4,52.0,127.3,5.33,35.5,-19.7,-20.5,164.6,40.0,74.9,0.0,29.96,12.84107,77.65978,,944.6733398,,50.0,,1 / 2,2241,2017-10-05 18:47:37:030
-7.384,-9.232,4.083,-8.036,-5.585,0.637,0.84,-3.583,3.564,-191.3,-3.8,71.4,5.33,35.0,-20.9,-20.6,154.5,34.7,85.5,0.0,29.96,12.84107,77.65978,,944.6733398,,50.0,,1 / 2,2251,2017-10-05 18:47:37:040
-7.384,-9.232,4.083,-8.279,-5.254,0.182,0.84,-3.583,3.564,-191.3,-3.8,71.4,5.33,35.0,-20.9,-20.6,154.5,34.7,85.5,0.0,29.96,12.84107,77.65978,,944.6733398,,50.0,,1 / 2,2261,2017-10-05 18:47:37:050
-8.382,-5.691,0.311,-8.279,-5.254,0.182,0.066,-0.397,0.265,-167.7,-15.1,37.6,5.33,34.0,-21.5,-20.8,154.5,34.7,85.5,0.0,29.96,12.84107,77.65978,,944.6733398,,50.0,,1 / 2,2271,2017-10-05 18:47:37:060
-8.382,-5.691,0.311,-8.347,-5.146,-0.098,0.066,-0.397,0.265,-146.1,10.3,47.9,5.33,34.0,-21.5,-20.8,154.5,34.7,85.5,0.0,29.96,12.84107,77.65978,,944.6733398,,50.0,,1 / 2,2282,2017-10-05 18:47:37:071
-10.653,-4.23,-2.242,-8.419,-5.026,-0.197,-2.063,0.863,-2.009,-146.1,10.3,47.9,5.33,33.5,-22.3,-21.7,148.1,31.7,90.7,0.0,29.96,12.84107,77.65978,,944.6733398,,50.0,,1 / 2,2291,2017-10-05 18:47:37:080
-10.653,-4.23,-2.242,-8.419,-5.026,-0.197,-2.063,0.863,-2.009,-136.1,37.1,57.0,7.463,33.5,-22.3,-21.7,148.1,31.7,90.7,0.0,29.96,12.84107,77.65978,,944.6733398,,50.0,,1 / 2,2301,2017-10-05 18:47:37:090
-7.558,-4.869,-1.726,-8.511,-4.857,-0.381,1.075,0.066,-1.317,-136.1,37.1,57.0,7.463,33.0,-22.7,-22.3,148.1,31.7,90.7,0.0,29.96,12.84107,77.65978,,944.6733398,,50.0,,1 / 2,2311,2017-10-05 18:47:37:100
-7.558,-4.869,-1.726,-8.511,-4.857,-0.381,1.075,0.066,-1.317,-136.1,37.1,57.0,7.463,33.0,-22.7,-22.3,148.1,31.7,90.7,0.0,29.96,12.84107,77.65978,,944.6733398,,50.0,,1 / 2,2321,2017-10-05 18:47:37:110
-6.714,-6.23,-0.823,-8.552,-4.746,-0.715,1.945,-1.384,-0.095,-135.5,56.0,39.7,7.463,32.3,-22.9,-23.2,145.3,29.7,92.6,0.0,29.96,12.84107,77.65978,,944.6733398,,50.0,,1 / 2,2331,2017-10-05 18:47:37:120
-6.714,-6.23,-0.823,-8.552,-4.746,-0.715,1.945,-1.384,-0.095,-126.6,62.9,-4.3,7.463,32.3,-22.9,-23.2,145.3,29.7,92.6,0.0,29.96,12.84107,77.65978,,944.6733398,,50.0,,1 / 2,2341,2017-10-05 18:47:37:130
-4.918,-3.705,3.094,-8.519,-4.737,-1.072,3.68,1.092,4.116,-102.5,56.7,-75.4,7.463,31.9,-22.7,-24.5,145.3,29.7,92.6,0.0,29.96,12.84107,77.65978,,944.6733398,,50.0,,1 / 2,2351,2017-10-05 18:47:37:140
-4.918,-3.705,3.094,-8.519,-4.737,-1.072,3.68,1.092,4.116,-102.5,56.7,-75.4,7.463,31.9,-22.7,-24.5,145.3,29.7,92.6,0.0,29.96,12.84107,77.65978,,944.6733398,,50.0,,1 / 2,2361,2017-10-05 18:47:37:150
-7.25,-2.492,4.008,-8.31,-5.02,-1.385,1.176,2.567,5.328,-52.3,28.3,-143.3,7.463,31.5,-22.4,-25.6,138.0,28.9,97.2,0.0,29.96,12.84107,77.65978,,944.6733398,,50.0,,1 / 2,2371,2017-10-05 18:47:37:160
-7.25,-2.492,4.008,-8.31,-5.02,-1.385,1.176,2.567,5.328,-16.6,7.1,-198.8,7.463,31.5,-22.4,-25.6,138.0,28.9,97.2,0.0,29.96,12.84107,77.65978,,944.6733398,,50.0,,1 / 2,2381,2017-10-05 18:47:37:170
-8.457,-1.546,-0.151,-8.117,-5.29,-1.514,-0.204,3.769,1.366,-16.6,7.1,-198.8,7.463,31.0,-21.8,-26.6,138.0,28.9,97.2,0.0,29.96,12.84107,77.65978,,944.6733398,,50.0,,1 / 2,2391,2017-10-05 18:47:37:180
-8.457,-1.546,-0.151,-8.117,-5.29,-1.514,-0.204,3.769,1.366,5.6,30.2,-186.1,7.463,31.0,-21.8,-26.6,138.0,28.9,97.2,0.0,29.96,12.84107,77.65978,,944.6733398,,50.0,,1 / 2,2401,2017-10-05 18:47:37:190
-11.863,-5.424,0.039,-7.805,-5.752,-1.472,-3.868,0.415,1.511,5.6,30.2,-186.1,7.463,31.1,-20.8,-27.4,134.3,32.6,100.6,0.0,29.96,12.84107,77.65978,,944.6733398,,50.0,,1 / 2,2411,2017-10-05 18:47:37:200
-11.863,-5.424,0.039,-7.805,-5.752,-1.472,-3.868,0.415,1.511,5.6,30.2,-186.1,7.463,31.1,-20.8,-27.4,134.3,32.6,100.6,0.0,29.96,12.84107,77.65978,,944.6733398,,50.0,,1 / 2,2421,2017-10-05 18:47:37:210
-9.076,-8.163,4.092,-7.409,-6.298,-1.266,-1.522,-1.733,5.292,48.5,52.4,-191.4,7.463,31.7,-19.4,-28.0,134.3,32.6,100.6,0.0,29.96,12.84107,77.65978,,944.6733398,,50.0,,1 / 2,2432,2017-10-05 18:47:37:221
-9.076,-8.163,4.092,-7.409,-6.298,-1.266,-1.522,-1.733,5.292,92.9,24.4,-216.6,7.463,31.7,-19.4,-28.0,134.3,32.6,100.6,0.0,29.96,12.84107,77.65978,,944.6733398,,50.0,,1 / 2,2442,2017-10-05 18:47:37:231
-6.158,-7.941,3.513,-6.908,-6.887,-1.007,0.849,-0.927,4.464,92.9,24.4,-216.6,7.463,32.5,-17.7,-28.2,134.9,44.6,98.3,0.0,29.96,12.84107,77.65978,,944.6733398,,50.0,,1 / 2,2451,2017-10-05 18:47:37:240
-6.158,-7.941,3.513,-6.908,-6.887,-1.007,0.849,-0.927,4.464,98.2,-11.4,-236.7,7.463,32.5,-17.7,-28.2,134.9,44.6,98.3,0.0,29.96,12.84107,77.65978,,944.6733398,,50.0,,1 / 2,2461,2017-10-05 18:47:37:250
-13.09,-5.692,-0.285,-6.471,-7.325,-0.804,-6.409,1.725,0.524,81.2,48.8,-158.0,7.463,32.9,-16.0,-28.3,134.9,44.6,98.3,0.0,29.96,12.84107,77.65978,,944.6733398,,50.0,,1 / 2,2471,2017-10-05 18:47:37:260
-13.09,-5.692,-0.285,-6.471,-7.325,-0.804,-6.409,1.725,0.524,81.2,48.8,-158.0,10.661,32.9,-16.0,-28.3,134.9,44.6,98.3,0.0,29.96,12.84107,77.65978,,944.6733398,,50.0,,1 / 2,2481,2017-10-05 18:47:37:270
-9.163,-8.195,0.319,-6.192,-7.586,-0.541,-2.824,-0.478,0.855,70.3,121.7,-55.8,10.661,33.7,-14.0,-28.4,137.1,50.7,95.0,0.0,46.51,12.84107,77.65978,,944.6733398,,50.0,,1 / 2,2491,2017-10-05 18:47:37:280
-9.163,-8.195,0.319,-6.192,-7.586,-0.541,-2.824,-0.478,0.855,70.3,121.7,-55.8,10.661,33.7,-14.0,-28.4,137.1,50.7,95.0,0.0,46.51,12.84107,77.65978,,944.6733398,,50.0,,1 / 2,2501,2017-10-05 18:47:37:290
-7.79,-8.714,0.787,-5.888,-7.827,-0.477,-1.776,-0.747,1.251,62.3,149.2,13.0,10.661,34.7,-12.0,-28.1,137.1,50.7,95.0,0.0,46.51,12.84107,77.65978,,944.6733398,,50.0,,1 / 2,2511,2017-10-05 18:47:37:300
-7.79,-8.714,0.787,-5.888,-7.827,-0.477,-1.776,-0.747,1.251,80.8,14.1,-0.9,10.661,34.7,-12.0,-28.1,137.1,50.7,95.0,0.0,46.51,12.84107,77.65978,,944.6733398,,50.0,,1 / 2,2521,2017-10-05 18:47:37:310
-6.476,-11.074,3.504,-5.802,-7.896,-0.403,-0.571,-3.0,3.851,82.5,-80.9,-61.3,10.661,35.9,-10.2,-27.7,137.6,53.6,94.0,0.0,46.51,12.84107,77.65978,,944.6733398,,50.0,,1 / 2,2532,2017-10-05 18:47:37:321
-6.476,-11.074,3.504,-5.802,-7.896,-0.403,-0.571,-3.0,3.851,82.5,-80.9,-61.3,10.661,35.9,-10.2,-27.7,137.6,53.6,94.0,0.0,46.51,12.84107,77.65978,,944.6733398,,50.0,,1 / 2,2541,2017-10-05 18:47:37:330
-9.593,-11.239,0.671,-5.639,-8.023,0.018,-3.8,-3.035,0.642,82.5,-80.9,-61.3,10.661,37.2,-8.6,-26.8,137.6,53.6,94.0,0.0,46.51,12.84107,77.65978,,944.6733398,,50.0,,1 / 2,2551,2017-10-05 18:47:37:340
-9.593,-11.239,0.671,-5.639,-8.023,0.018,-3.8,-3.035,0.642,40.3,-118.6,-98.4,10.661,37.2,-8.6,-26.8,137.6,53.6,94.0,0.0,46.51,12.84107,77.65978,,944.6733398,,50.0,,1 / 2,2561,2017-10-05 18:47:37:350
-11.244,-8.828,-2.927,-5.44,-8.152,0.34,-5.623,-0.534,-3.219,40.3,-118.6,-98.4,10.661,38.5,-7.3,-26.1,143.7,54.9,89.8,0.0,46.51,12.84107,77.65978,,944.6733398,,50.0,,1 / 2,2571,2017-10-05 18:47:37:360
-11.244,-8.828,-2.927,-5.44,-8.152,0.34,-5.623,-0.534,-3.219,-28.3,-99.1,-93.0,10.661,38.5,-7.3,-26.1,143.7,54.9,89.8,0.0,46.51,12.84107,77.65978,,944.6733398,,50.0,,1 / 2,2580,2017-10-05 18:47:37:369
-8.495,-8.862,-1.324,-5.221,-8.283,0.546,-3.138,-0.437,-1.848,-82.6,-42.0,-77.4,10.661,39.1,-6.5,-25.6,143.7,54.9,89.8,0.0,46.51,12.84107,77.65978,,944.6733398,,50.0,,1 / 2,2591,2017-10-05 18:47:37:380
-8.495,-8.862,-1.324,-5.221,-8.283,0.546,-3.138,-0.437,-1.848,-82.6,-42.0,-77.4,10.661,39.1,-6.5,-25.6,143.7,54.9,89.8,0.0,46.51,12.84107,77.65978,,944.6733398,,50.0,,1 / 2,2601,2017-10-05 18:47:37:390
-6.875,-7.55,1.021,-5.016,-8.42,0.333,-1.748,0.991,0.672,-73.9,23.6,-61.3,10.661,39.4,-5.8,-25.3,149.5,59.2,86.2,0.0,46.51,12.84107,77.65978,,944.6733398,,50.0,,1 / 2,2612,2017-10-05 18:47:37:401
-6.875,-7.55,1.021,-5.016,-8.42,0.333,-1.748,0.991,0.672,-73.9,23.6,-61.3,10.661,39.4,-5.8,-25.3,149.5,59.2,86.2,0.0,46.51,12.84107,77.65978,,944.6733398,,50.0,,1 / 2,2621,2017-10-05 18:47:37:410
-4.625,-6.076,1.999,-4.821,-8.538,0.187,0.27,2.56,1.779,-20.7,49.1,-48.2,10.661,40.1,-5.0,-25.4,149.5,59.2,86.2,0.0,46.51,12.84107,77.65978,,944.6733398,,50.0,,1 / 2,2630,2017-10-05 18:47:37:419
-4.625,-6.076,1.999,-4.821,-8.538,0.187,0.27,2.56,1.779,50.5,26.4,-46.3,10.661,40.1,-5.0,-25.4,149.5,59.2,86.2,0.0,46.51,12.84107,77.65978,,944.6733398,,50.0,,1 / 2,2641,2017-10-05 18:47:37:430
-3.55,-5.289,1.304,-4.659,-8.629,0.045,1.166,3.426,1.237,50.5,26.4,-46.3,8.529,40.3,-4.4,-25.4,148.1,60.5,87.8,0.0,46.51,12.84107,77.65978,,944.6733398,,50.0,,1 / 2,2651,2017-10-05 18:47:37:440
-3.55,-5.289,1.304,-4.659,-8.629,0.045,1.166,3.426,1.237,95.4,-58.1,-30.2,8.529,40.3,-4.4,-25.4,148.1,60.5,87.8,0.0,46.51,12.84107,77.65978,,944.6733398,,50.0,,1 / 2,2661,2017-10-05 18:47:37:450
-4.032,-5.176,-0.277,-4.561,-8.664,0.553,0.594,3.571,-0.826,95.4,-58.1,-30.2,8.529,40.5,-4.0,-25.4,148.1,60.5,87.8,0.0,46.51,12.84107,77.65978,,944.6733398,,50.0,,1 / 2,2671,2017-10-05 18:47:37:460
-4.032,-5.176,-0.277,-4.561,-8.664,0.553,0.594,3.571,-0.826,49.9,-139.7,-11.1,8.529,40.5,-4.0,-25.4,148.1,60.5,87.8,0.0,46.51,12.84107,77.65978,,944.6733398,,50.0,,1 / 2,2682,2017-10-05 18:47:37:471
-6.261,-6.922,-2.269,-4.452,-8.696,0.857,-1.709,1.885,-3.089,49.9,-139.7,-11.1,8.529,40.6,-3.4,-25.4,153.6,62.1,83.1,0.0,46.51,12.84107,77.65978,,944.6733398,,50.0,,1 / 2,2690,2017-10-05 18:47:37:479
-6.261,-6.922,-2.269,-4.452,-8.696,0.857,-1.709,1.885,-3.089,-16.7,-63.6,13.2,8.529,40.6,-3.4,-25.4,153.6,62.1,83.1,0.0,46.51,12.84107,77.65978,,944.6733398,,50.0,,1 / 2,2701,2017-10-05 18:47:37:490
-6.543,-7.143,0.736,-4.389,-8.692,1.164,-2.049,1.664,-0.44,-16.7,-63.6,13.2,8.529,40.4,-3.1,-26.0,153.6,62.1,83.1,0.0,46.51,12.84107,77.65978,,944.6733398,,50.0,,1 / 2,2711,2017-10-05 18:47:37:500
-6.543,-7.143,0.736,-4.389,-8.692,1.164,-2.049,1.664,-0.44,-42.5,-8.4,37.7,8.529,40.4,-3.1,-26.0,153.6,62.1,83.1,0.0,46.51,12.84107,77.65978,,944.6733398,,50.0,,1 / 2,2721,2017-10-05 18:47:37:510
-7.758,-6.506,2.305,-4.503,-8.653,1.006,-3.131,2.252,1.262,-42.5,-8.4,37.7,8.529,39.9,-2.6,-26.8,159.2,62.4,75.1,0.0,46.51,12.84107,77.65978,,944.6733398,,50.0,,1 / 2,2731,2017-10-05 18:47:37:520
-7.758,-6.506,2.305,-4.503,-8.653,1.006,-3.131,2.252,1.262,-42.5,-8.4,37.7,8.529,39.9,-2.6,-26.8,159.2,62.4,75.1,0.0,46.51,12.84107,77.65978,,944.6733398,,50.0,,1 / 2,2741,2017-10-05 18:47:37:530
-8.017,-7.463,2.733,-4.576,-8.628,0.889,-3.312,1.285,1.8,-62.6,1.8,60.4,8.529,39.7,-2.2,-27.5,159.2,62.4,75.1,0.0,46.51,12.84107,77.65978,,944.6733398,,50.0,,1 / 2,2753,2017-10-05 18:47:37:542
-8.017,-7.463,2.733,-4.576,-8.628,0.889,-3.312,1.285,1.8,-62.6,1.8,60.4,8.529,39.7,-2.2,-27.5,159.2,62.4,75.1,0.0,46.51,12.84107,77.65978,,944.6733398,,50.0,,1 / 2,2761,2017-10-05 18:47:37:550
-8.114,-10.683,1.503,-4.726,-8.567,0.666,-3.257,-1.944,0.814,-62.6,1.8,60.4,8.529,39.4,-1.9,-28.2,149.7,60.9,82.0,0.0,46.51,12.84107,77.65978,,944.6733398,,50.0,,1 / 2,2771,2017-10-05 18:47:37:560
-8.114,-10.683,1.503,-4.726,-8.567,0.666,-3.257,-1.944,0.814,-74.2,-0.2,61.1,8.529,39.4,-1.9,-28.2,149.7,60.9,82.0,0.0,46.51,12.84107,77.65978,,944.6733398,,50.0,,1 / 2,2781,2017-10-05 18:47:37:570
-8.114,-10.683,1.503,-4.726,-8.567,0.666,-3.165,-1.991,0.883,-74.2,-0.2,61.1,8.529,39.4,-1.9,-28.2,149.7,60.9,82.0,0.0,46.51,12.84107,77.65978,,944.6733398,,50.0,,1 / 2,2791,2017-10-05 18:47:37:580
-8.114,-10.683,1.503,-4.726,-8.567,0.666,-3.165,-1.991,0.883,-74.2,-0.2,61.1,8.529,39.4,-1.9,-28.2,149.7,60.9,82.0,0.0,46.51,12.84107,77.65978,,944.6733398,,50.0,,1 / 2,2802,2017-10-05 18:47:37:591
-8.114,-10.683,1.503,-4.908,-8.474,0.522,-2.032,-2.214,1.629,-74.2,-0.2,61.1,8.529,39.1,-2.0,-28.7,148.7,60.9,82.0,0.0,46.51,12.84107,77.65978,,944.6733398,,50.0,,1 / 2,2811,2017-10-05 18:47:37:600
-8.114,-10.683,1.503,-4.908,-8.474,0.522,-2.032,-2.214,1.629,-63.0,3.5,47.7,9.595,39.1,-2.0,-28.7,148.7,60.9,82.0,0.0,46.4,12.84107,77.65978,,944.6733398,,50.0,,1 / 2,2821,2017-10-05 18:47:37:610
-8.114,-5.693,-1.653,-4.908,-8.474,0.522,0.65,2.683,-1.883,-63.0,3.5,47.7,9.595,38.6,-2.6,-29.5,148.7,60.9,82.0,0.0,46.4,12.84107,77.65978,,944.6733398,,50.0,,1 / 2,2831,2017-10-05 18:47:37:620
-4.666,-5.693,-1.653,-5.241,-8.285,0.257,0.65,2.683,-1.883,-63.0,3.5,47.7,9.595,38.6,-2.6,-29.5,148.7,60.9,82.0,0.0,46.4,12.84107,77.65978,,944.6733398,,50.0,,1 / 2,2842,2017-10-05 18:47:37:631
-4.666,-2.887,-1.166,-5.361,-8.211,0.064,-1.728,5.371,-1.211,-66.0,39.2,41.1,9.595,38.2,-2.9,-30.4,141.2,57.7,87.2,0.0,46.4,12.84107,77.65978,,944.6733398,,50.0,,1 / 2,2851,2017-10-05 18:47:37:640
-7.205,-2.887,-1.166,-5.361,-8.211,0.064,-1.728,5.371,-1.211,-62.6,73.7,34.8,9.595,38.2,-2.9,-30.4,141.2,57.7,87.2,0.0,46.4,12.84107,77.65978,,944.6733398,,50.0,,1 / 2,2861,2017-10-05 18:47:37:650
-6.273,-2.481,-1.622,-5.475,-8.129,-0.347,-0.697,5.688,-1.249,-61.4,110.5,43.7,9.595,38.1,-3.1,-31.0,141.2,57.7,87.2,0.0,46.4,12.84107,77.65978,,944.6733398,,50.0,,1 / 2,2871,2017-10-05 18:47:37:660
-6.273,-2.481,-1.622,-5.475,-8.129,-0.347,-0.697,5.688,-1.249,-61.4,110.5,43.7,9.595,38.1,-3.1,-31.0,141.2,57.7,87.2,0.0,46.4,12.84107,77.65978,,944.6733398,,50.0,,1 / 2,2881,2017-10-05 18:47:37:670
-6.273,-2.481,-1.622,-5.475,-8.129,-0.347,-0.697,5.688,-1.249,-61.4,110.5,43.7,9.595,38.1,-3.1,-31.0,141.2,57.7,87.2,0.0,46.4,12.84107,77.65978,,944.6733398,,50.0,,1 / 2,2891,2017-10-05 18:47:37:680
-4.599,-9.636,0.177,-5.565,-8.036,-0.785,1.04,-1.445,0.959,-54.6,155.4,40.9,9.595,37.9,-3.1,-31.0,133.4,56.0,93.6,0.0,46.4,12.84107,77.65978,,944.6733398,,50.0,,1 / 2,2901,2017-10-05 18:47:37:690
-4.599,-9.636,0.177,-5.565,-8.036,-0.785,1.04,-1.445,0.959,-54.6,155.4,40.9,9.595,37.9,-3.1,-31.0,133.4,56.0,93.6,0.0,46.4,12.84107,77.65978,,944.6733398,,50.0,,1 / 2,2912,2017-10-05 18:47:37:701
-7.363,-6.09,3.314,-5.616,-7.925,-1.347,-1.628,1.933,4.608,-53.0,205.1,48.0,9.595,38.0,-3.1,-30.8,133.4,56.0,93.6,0.0,46.4,12.84107,77.65978,,944.6733398,,50.0,,1 / 2,2921,2017-10-05 18:47:37:710
-3.159,-9.015,3.288,-5.601,-7.834,-1.853,2.493,-1.037,5.088,-21.5,258.3,23.6,9.595,38.5,-3.2,-30.2,120.4,53.0,108.3,0.0,46.4,12.84107,77.65978,,944.6733398,,50.0,,1 / 2,2931,2017-10-05 18:47:37:720
-3.159,-9.015,3.288,-5.601,-7.834,-1.853,2.493,-1.037,5.088,-21.5,258.3,23.6,9.595,38.5,-3.2,-30.2,120.4,53.0,108.3,0.0,46.4,12.84107,77.65978,,944.6733398,,50.0,,1 / 2,2941,2017-10-05 18:47:37:730
-3.159,-9.015,3.288,-5.601,-7.834,-1.853,2.493,-1.037,5.088,9.4,204.1,-21.8,9.595,38.5,-3.2,-30.2,120.4,53.0,108.3,0.0,46.4,12.84107,77.65978,,944.6733398,,50.0,,1 / 2,2952,2017-10-05 18:47:37:741
-2.179,-11.004,-1.048,-5.506,-7.808,-2.209,3.362,-3.019,1.178,9.4,204.1,-21.8,9.595,39.2,-3.5,-29.3,120.4,53.0,108.3,0.0,46.4,12.84107,77.65978,,944.6733398,,50.0,,1 / 2,2961,2017-10-05 18:47:37:750
-2.179,-11.004,-1.048,-5.506,-7.808,-2.209,3.362,-3.019,1.178,18.8,95.6,-58.0,9.595,39.2,-3.5,-29.3,120.4,53.0,108.3,0.0,46.4,12.84107,77.65978,,944.6733398,,50.0,,1 / 2,2971,2017-10-05 18:47:37:760
-4.441,-13.04,-2.184,-5.323,-7.963,-2.105,0.954,-4.868,-0.044,18.8,95.6,-58.0,9.595,40.1,-3.5,-27.9,120.1,52.8,111.9,0.0,46.4,12.84107,77.65978,,944.6733398,,50.0,,1 / 2,2981,2017-10-05 18:47:37:770
-4.121,-6.482,-1.379,-5.135,-8.076,-2.141,1.08,1.697,0.784,17.1,29.8,-66.3,6.397,41.2,-3.8,-26.3,120.1,52.8,111.9,0.0,46.4,12.84107,77.65978,,944.6733398,,50.0,,1 / 2,2991,2017-10-05 18:47:37:780
-4.121,-6.482,-1.379,-5.135,-8.076,-2.141,1.08,1.697,0.784,18.6,16.4,-50.5,6.397,41.2,-3.8,-26.3,120.1,52.8,111.9,0.0,46.4,12.84107,77.65978,,944.6733398,,50.0,,1 / 2,3001,2017-10-05 18:47:37:790
-2.446,-5.209,-2.71,-4.929,-8.211,-2.11,1.08,1.697,0.784,18.6,16.4,-50.5,6.397,42.4,-3.7,-24.4,124.8,55.4,112.6,0.0,46.4,12.84107,77.65978,,944.6733398,,50.0,,1 / 2,3012,2017-10-05 18:47:37:801
-2.446,-5.209,-2.71,-4.929,-8.211,-2.11,1.08,1.697,0.784,18.6,16.4,-50.5,6.397,42.4,-3.7,-24.4,124.8,55.4,112.6,0.0,46.4,12.84107,77.65978,,944.6733398,,50.0,,1 / 2,3021,2017-10-05 18:47:37:810
-2.446,-5.209,-2.71,-4.849,-8.273,-2.056,2.523,3.086,-0.557,34.9,30.2,-43.0,6.397,42.4,-3.7,-24.4,124.8,55.4,112.6,0.0,46.4,12.84107,77.65978,,944.6733398,,50.0,,1 / 2,3031,2017-10-05 18:47:37:820
-4.312,-6.199,-1.702,-4.692,-8.392,-1.931,0.45,2.293,0.257,67.7,29.4,-41.7,6.397,43.1,-3.5,-22.3,124.8,55.4,112.6,0.0,46.4,12.84107,77.65978,,944.6733398,,50.0,,1 / 2,3041,2017-10-05 18:47:37:830
-4.312,-6.199,-1.702,-4.692,-8.392,-1.931,0.45,2.293,0.257,67.7,29.4,-41.7,6.397,43.1,-3.5,-22.3,124.8,55.4,112.6,0.0,46.4,12.84107,77.65978,,944.6733398,,50.0,,1 / 2,3051,2017-10-05 18:47:37:840
-5.75,-8.382,-2.152,-4.569,-8.501,-1.742,-1.089,0.254,-0.375,76.8,14.7,-33.8,6.397,44.4,-3.4,-20.5,130.3,58.8,112.4,0.0,46.4,12.84107,77.65978,,944.6733398,,50.0,,1 / 2,3061,2017-10-05 18:47:37:850
-5.75,-8.382,-2.152,-4.569,-8.501,-1.742,-1.089,0.254,-0.375,76.8,14.7,-33.8,6.397,44.4,-3.4,-20.5,130.3,58.8,112.4,0.0,46.4,12.84107,77.65978,,944.6733398,,50.0,,1 / 2,3071,2017-10-05 18:47:37:860
-5.75,-9.098,-2.402,-4.569,-8.501,-1.742,-1.089,0.254,-0.375,77.9,-2.9,-34.1,6.397,45.5,-3.2,-18.8,130.3,58.8,112.4,0.0,46.4,12.84107,77.65978,,944.6733398,,50.0,,1 / 2,3081,2017-10-05 18:47:37:870
-6.214,-9.098,-2.402,-4.435,-8.592,-1.638,-1.68,-0.36,-0.725,63.6,-16.1,-33.1,6.397,45.5,-3.2,-18.8,130.3,58.8,112.4,0.0,46.4,12.84107,77.65978,,944.6733398,,50.0,,1 / 2,3092,2017-10-05 18:47:37:881
-6.214,-9.098,-2.402,-4.435,-8.592,-1.638,-1.68,-0.104,-1.148,63.6,-16.1,-33.1,6.397,46.3,-2.9,-17.5,135.8,61.2,110.3,0.0,46.4,12.84107,77.65978,,944.6733398,,50.0,,1 / 2,3101,2017-10-05 18:47:37:890
-7.103,-8.922,-2.656,-4.332,-8.675,-1.466,-2.657,-0.104,-1.148,63.6,-16.1,-33.1,6.397,46.3,-2.9,-17.5,135.8,61.2,110.3,0.0,46.4,12.84107,77.65978,,944.6733398,,50.0,,1 / 2,3111,2017-10-05 18:47:37:900
-7.51,-10.061,-2.392,-4.242,-8.737,-1.357,-3.147,-1.162,-0.997,34.9,-13.6,-32.9,6.397,46.7,-2.1,-16.4,135.8,61.2,110.3,0.0,46.13,12.84107,77.65978,,944.6733398,,50.0,,1 / 2,3121,2017-10-05 18:47:37:910
-7.51,-10.061,-2.392,-4.242,-8.737,-1.357,-3.147,-1.162,-0.997,11.1,-24.0,-38.8,6.397,46.7,-2.1,-16.4,135.8,61.2,110.3,0.0,46.13,12.84107,77.65978,,944.6733398,,50.0,,1 / 2,3131,2017-10-05 18:47:37:920
-7.51,-10.061,-2.392,-4.242,-8.737,-1.357,-3.147,-1.162,-0.997,11.1,-24.0,-38.8,6.397,46.7,-2.1,-16.4,135.8,61.2,110.3,0.0,46.13,12.84107,77.65978,,944.6733398,,50.0,,1 / 2,3141,2017-10-05 18:47:37:930
-7.432,-9.207,-1.763,-4.154,-8.787,-1.303,-3.159,-0.272,-0.431,-3.3,-39.9,-31.3,6.397,47.2,-1.6,-15.9,141.0,63.0,107.7,0.0,46.13,12.84107,77.65978,,944.6733398,,50.0,,1 / 2,3151,2017-10-05 18:47:37:940
-7.432,-7.693,-2.109,-4.154,-8.787,-1.303,-1.26,1.249,-0.806,-3.3,-39.9,-31.3,8.529,47.0,-1.0,-15.6,141.0,63.0,107.7,0.0,46.13,12.84107,77.65978,,944.6733398,,50.0,,1 / 2,3161,2017-10-05 18:47:37:950
-5.445,-7.693,-2.109,-4.098,-8.818,-1.269,-1.26,1.249,-0.806,-10.6,-42.7,-13.3,8.529,47.0,-1.0,-15.6,141.0,63.0,107.7,0.0,46.13,12.84107,77.65978,,944.6733398,,50.0,,1 / 2,3171,2017-10-05 18:47:37:960
-5.445,-7.693,-1.732,-4.098,-8.818,-1.269,-1.26,1.249,-0.806,-0.8,-50.6,-5.9,8.529,47.2,-0.4,-15.4,142.2,64.1,107.2,0.0,46.13,12.84107,77.65978,,944.6733398,,50.0,,1 / 2,3181,2017-10-05 18:47:37:970
-3.99,-8.645,-1.732,-4.093,-8.823,-1.255,0.168,0.317,-0.449,-0.8,-50.6,-5.9,8.529,47.2,-0.4,-15.4,142.2,64.1,107.2,0.0,46.13,12.84107,77.65978,,944.6733398,,50.0,,1 / 2,3192,2017-10-05 18:47:37:981
-3.99,-8.645,-1.732,-4.093,-8.823,-1.255,0.281,-0.642,-0.248,23.4,-62.3,-14.2,8.529,47.6,0.2,-15.5,142.2,64.1,107.2,0.0,46.13,12.84107,77.65978,,944.6733398,,50.0,,1 / 2,3201,2017-10-05 18:47:37:990
-3.818,-9.664,-1.39,-4.037,-8.867,-1.12,0.281,-0.642,-0.248,23.4,-62.3,-14.2,8.529,47.6,0.2,-15.5,142.2,64.1,107.2,0.0,46.13,12.84107,77.65978,,944.6733398,,50.0,,1 / 2,3212,2017-10-05 18:47:38:001
-5.114,-11.331,-1.595,-4.01,-8.895,-0.988,-1.023,-2.256,-0.56,39.7,-78.3,-28.8,8.529,47.5,0.6,-15.7,142.2,64.1,107.2,0.0,46.13,12.84107,77.65978,,944.6733398,,50.0,,1 / 2,3221,2017-10-05 18:47:38:010
-5.114,-11.331,-1.595,-4.01,-8.895,-0.988,-1.023,-2.256,-0.56,41.6,-112.7,-34.9,8.529,47.5,0.6,-15.7,142.2,64.1,107.2,0.0,46.13,12.84107,77.65978,,944.6733398,,50.0,,1 / 2,3231,2017-10-05 18:47:38:020
-5.114,-11.331,-1.595,-4.01,-8.895,-0.988,-1.436,-0.237,-1.264,41.6,-112.7,-34.9,8.529,47.4,1.1,-16.1,144.5,65.1,103.8,0.0,46.13,12.84107,77.65978,,944.6733398,,50.0,,1 / 2,3241,2017-10-05 18:47:38:030
-4.813,-9.249,-2.519,-3.964,-8.939,-0.742,-1.436,-0.237,-1.264,31.8,-113.3,-17.8,8.529,47.4,1.1,-16.1,144.5,65.1,103.8,0.0,46.13,12.84107,77.65978,,944.6733398,,50.0,,1 / 2,3251,2017-10-05 18:47:38:040
-4.813,-9.249,-2.519,-3.964,-8.939,-0.742,-0.808,-0.137,-1.846,31.8,-113.3,-17.8,8.529,47.2,1.4,-16.6,144.5,65.1,103.8,0.0,46.13,12.84107,77.65978,,944.6733398,,50.0,,1 / 2,3261,2017-10-05 18:47:38:050
-1.599,-4.724,-0.47,-3.922,-8.97,-0.576,-0.808,-0.137,-1.846,13.3,-61.7,-7.5,8.529,47.2,1.4,-16.6,144.5,65.1,103.8,0.0,46.13,12.84107,77.65978,,944.6733398,,50.0,,1 / 2,3272,2017-10-05 18:47:38:061
-1.599,-4.724,-0.47,-3.922,-8.97,-0.576,2.343,4.327,0.057,13.3,-61.7,-7.5,8.529,46.9,1.8,-17.6,147.9,66.2,98.4,0.0,46.13,12.84107,77.65978,,944.6733398,,50.0,,1 / 2,3281,2017-10-05 18:47:38:070
-0.61,-6.408,0.166,-3.89,-8.99,-0.456,3.248,0.282,0.319,33.0,7.0,-27.1,8.529,46.3,2.2,-18.6,147.9,66.2,98.4,0.0,46.13,12.84107,77.65978,,944.6733398,,50.0,,1 / 2,3291,2017-10-05 18:47:38:080
-0.61,-6.408,0.166,-3.89,-8.99,-0.456,3.248,0.282,0.319,33.0,7.0,-27.1,8.529,46.3,2.2,-18.6,147.9,66.2,98.4,0.0,46.13,12.84107,77.65978,,944.6733398,,50.0,,1 / 2,3301,2017-10-05 18:47:38:090
-2.251,-8.87,-0.136,-3.806,-9.027,-0.449,-2.448,-1.46,0.481,32.6,17.8,-42.3,8.529,46.0,2.2,-19.7,147.2,67.0,96.7,0.0,46.13,12.84107,77.65978,,944.6733398,,50.0,,1 / 2,3311,2017-10-05 18:47:38:100
-2.251,-8.87,-0.136,-3.806,-9.027,-0.449,-2.448,-1.46,0.481,32.6,17.8,-42.3,8.529,46.0,2.2,-19.7,147.2,67.0,96.7,0.0,46.13,12.84107,77.65978,,944.6733398,,50.0,,1 / 2,3321,2017-10-05 18:47:38:110
-6.326,-10.673,0.083,-3.708,-9.071,-0.365,-4.505,-2.102,0.789,32.3,23.8,-48.7,5.33,45.5,2.0,-20.8,147.2,67.0,96.7,0.0,46.13,12.84107,77.65978,,944.6733398,,50.0,,1 / 2,3331,2017-10-05 18:47:38:120
-6.326,-10.673,0.083,-3.708,-9.071,-0.365,-4.505,-2.102,0.789,32.3,23.8,-48.7,5.33,45.5,2.0,-20.8,147.2,67.0,96.7,0.0,46.13,12.84107,77.65978,,944.6733398,,50.0,,1 / 2,3341,2017-10-05 18:47:38:130
-8.267,-11.39,0.462,-3.586,-9.123,-0.281,-4.505,-2.102,0.789,32.3,-43.9,-39.2,5.33,45.3,2.2,-21.3,148.2,68.5,94.5,0.0,46.13,12.84107,77.65978,,944.6733398,,50.0,,1 / 2,3351,2017-10-05 18:47:38:140
-8.267,-11.39,0.462,-3.586,-9.123,-0.281,-2.827,0.06,0.286,15.3,-43.9,-39.2,5.33,45.3,2.2,-21.3,148.2,68.5,94.5,0.0,46.13,12.84107,77.65978,,944.6733398,,50.0,,1 / 2,3361,2017-10-05 18:47:38:150
-2.826,-9.279,0.605,-3.488,-9.164,-0.161,0.627,0.065,0.7,10.9,-66.3,-25.0,5.33,45.1,2.3,-22.1,148.2,68.5,94.5,0.0,46.13,12.84107,77.65978,,944.6733398,,50.0,,1 / 2,3371,2017-10-05 18:47:38:160
-2.826,-9.279,0.605,-3.488,-9.164,-0.161,0.627,0.065,0.7,10.9,-66.3,-25.0,5.33,45.1,2.3,-22.1,148.2,68.5,94.5,0.0,46.13,12.84107,77.65978,,944.6733398,,50.0,,1 / 2,3381,2017-10-05 18:47:38:170
0.074,-11.741,-0.864,-3.356,-9.215,-0.025,0.627,0.065,0.7,28.5,-20.6,-32.1,5.33,45.1,2.3,-22.1,148.2,68.5,94.5,0.0,46.13,12.84107,77.65978,,944.6733398,,50.0,,1 / 2,3391,2017-10-05 18:47:38:180
0.074,-11.741,-0.864,-3.356,-9.215,-0.025,3.376,-2.319,-0.904,28.5,-20.6,-32.1,5.33,44.6,2.6,-22.5,151.5,70.0,90.4,0.0,46.13,12.84107,77.65978,,944.6733398,,50.0,,1 / 2,3402,2017-10-05 18:47:38:191
1.814,-10.237,-0.875,-3.217,-9.263,0.143,3.376,-2.319,-0.904,47.6,5.1,-60.4,5.33,44.6,2.6,-22.5,151.5,70.0,90.4,0.0,46.13,12.84107,77.65978,,944.6733398,,50.0,,1 / 2,3411,2017-10-05 18:47:38:200
1.814,-10.237,-0.875,-3.217,-9.263,0.143,5.86,-1.903,-1.472,56.5,-47.0,-100.7,5.33,44.4,2.6,-23.2,151.5,70.0,90.4,0.0,52.98,12.84107,77.65978,,944.6733398,,50.0,,1 / 2,3421,2017-10-05 18:47:38:210
2.854,-11.401,-1.215,-2.884,-9.364,0.41,5.86,-1.903,-1.472,29.2,-136.8,-121.4,5.33,44.4,2.6,-23.2,151.5,70.0,90.4,0.0,52.98,12.84107,77.65978,,944.6733398,,50.0,,1 / 2,3431,2017-10-05 18:47:38:220
2.854,-11.401,-1.215,-2.884,-9.364,0.41,1.669,3.064,-0.263,29.2,-136.8,-121.4,5.33,44.1,2.6,-23.0,159.3,72.7,81.9,0.0,52.98,12.84107,77.65978,,944.6733398,,50.0,,1 / 2,3441,2017-10-05 18:47:38:230
-1.14,-6.43,0.181,-2.58,-9.447,0.526,1.669,3.064,-0.263,-4.1,-172.2,-109.3,5.33,44.1,2.6,-23.0,159.3,72.7,81.9,0.0,52.98,12.84107,77.65978,,944.6733398,,50.0,,1 / 2,3451,2017-10-05 18:47:38:240
0.404,-4.682,2.534,-2.385,-9.495,0.567,2.782,4.888,1.927,-4.1,-172.2,-109.3,5.33,44.2,2.9,-23.2,159.3,72.7,81.9,0.0,52.98,12.84107,77.65978,,944.6733398,,50.0,,1 / 2,3461,2017-10-05 18:47:38:250
0.404,-4.682,2.534,-2.385,-9.495,0.567,2.782,4.888,1.927,-20.8,-148.0,-109.8,5.33,44.2,2.9,-23.2,159.3,72.7,81.9,0.0,52.98,12.84107,77.65978,,944.6733398,,50.0,,1 / 2,3471,2017-10-05 18:47:38:260
1.863,-3.435,2.997,-2.014,-9.58,0.573,3.848,6.201,2.376,-25.2,-108.9,-108.5,5.33,43.9,3.7,-23.5,164.0,75.5,76.6,0.0,52.98,12.84107,77.65978,,944.6733398,,50.0,,1 / 2,3481,2017-10-05 18:47:38:270
1.863,-3.435,2.997,-2.014,-9.58,0.573,3.848,6.201,2.376,-25.2,-108.9,-108.5,5.33,43.9,3.7,-23.5,164.0,75.5,76.6,0.0,52.98,12.84107,77.65978,,944.6733398,,50.0,,1 / 2,3491,2017-10-05 18:47:38:280
-0.828,-8.264,4.331,-1.617,-9.652,0.634,0.803,1.52,3.627,-23.9,-150.7,-119.1,9.595,43.3,4.4,-24.2,164.0,75.5,76.6,0.0,52.98,12.84107,77.65978,,944.6733398,,50.0,,1 / 2,3501,2017-10-05 18:47:38:290
-0.828,-8.264,4.331,-1.617,-9.652,0.634,0.803,1.52,3.627,-23.9,-150.7,-119.1,9.595,43.3,4.4,-24.2,164.0,75.5,76.6,0.0,52.98,12.84107,77.65978,,944.6733398,,50.0,,1 / 2,3511,2017-10-05 18:47:38:300
-5.126,-12.2,2.404,-1.113,-9.714,0.748,-3.93,-2.29,1.617,-23.9,-150.7,-119.1,9.595,42.0,5.3,-25.4,170.3,79.8,68.6,0.0,52.98,12.84107,77.65978,,944.6733398,,50.0,,1 / 2,3521,2017-10-05 18:47:38:310
-5.126,-12.2,2.404,-1.113,-9.714,0.748,-3.93,-2.29,1.617,-25.0,-183.9,-147.9,9.595,42.0,5.3,-25.4,170.3,79.8,68.6,0.0,52.98,12.84107,77.65978,,944.6733398,,50.0,,1 / 2,3531,2017-10-05 18:47:38:320
-6.969,-9.539,-0.991,-0.637,-9.745,0.893,-6.221,0.359,-1.869,-29.7,-166.9,-141.5,9.595,41.0,6.5,-26.4,170.3,79.8,68.6,0.0,52.98,12.84107,77.65978,,944.6733398,,50.0,,1 / 2,3541,2017-10-05 18:47:38:330
-6.969,-9.539,-0.991,-0.637,-9.745,0.893,-6.221,0.359,-1.869,-31.1,-117.9,-123.0,9.595,41.0,6.5,-26.4,170.3,79.8,68.6,0.0,52.98,12.84107,77.65978,,944.6733398,,50.0,,1 / 2,3551,2017-10-05 18:47:38:340
-7.561,-12.339,-0.264,-0.117,-9.76,0.948,-7.323,-2.381,-1.208,-31.1,-117.9,-123.0,9.595,39.7,7.7,-28.0,228.8,84.4,7.0,0.0,52.98,12.84107,77.65978,,944.6733398,,50.0,,1 / 2,3561,2017-10-05 18:47:38:350
-7.561,-12.339,-0.264,-0.117,-9.76,0.948,-7.323,-2.381,-1.208,-31.1,-117.9,-123.0,9.595,39.7,7.7,-28.0,228.8,84.4,7.0,0.0,52.98,12.84107,77.65978,,944.6733398,,50.0,,1 / 2,3571,2017-10-05 18:47:38:360
-6.552,-10.414,0.869,0.227,-9.757,0.963,-6.673,-0.49,-0.107,-13.2,-83.3,-93.1,9.595,38.0,9.7,-29.3,228.8,84.4,7.0,0.0,52.98,12.84107,77.65978,,944.6733398,,50.0,,1 / 2,3582,2017-10-05 18:47:38:371
-6.552,-10.414,0.869,0.227,-9.757,0.963,-6.673,-0.49,-0.107,12.3,-53.6,-62.8,9.595,38.0,9.7,-29.3,228.8,84.4,7.0,0.0,52.98,12.84107,77.65978,,944.6733398,,50.0,,1 / 2,3591,2017-10-05 18:47:38:380
-4.347,-10.027,1.692,0.549,-9.752,0.875,-4.826,-0.114,0.79,12.3,-53.6,-62.8,9.595,36.1,11.6,-31.0,262.9,84.0,-32.1,0.0,52.98,12.84107,77.65978,,944.6733398,,50.0,,1 / 2,3601,2017-10-05 18:47:38:390
-4.347,-10.027,1.692,0.549,-9.752,0.875,-4.826,-0.114,0.79,31.9,-13.5,-28.7,9.595,36.1,11.6,-31.0,262.9,84.0,-32.1,0.0,52.98,12.84107,77.65978,,944.6733398,,50.0,,1 / 2,3611,2017-10-05 18:47:38:400
0.407,-9.625,1.965,0.74,-9.739,0.878,-0.339,0.268,1.056,40.2,3.1,-15.9,9.595,34.2,13.4,-32.6,262.9,84.0,-32.1,0.0,52.98,12.84107,77.65978,,944.6733398,,50.0,,1 / 2,3621,2017-10-05 18:47:38:410
0.407,-9.625,1.965,0.74,-9.739,0.878,-0.339,0.268,1.056,40.2,3.1,-15.9,9.595,34.2,13.4,-32.6,262.9,84.0,-32.1,0.0,52.98,12.84107,77.65978,,944.6733398,,50.0,,1 / 2,3631,2017-10-05 18:47:38:420
-0.488,-10.343,3.863,0.789,-9.717,1.06,-1.269,-0.46,2.741,53.3,12.2,-17.6,9.595,32.5,15.1,-33.9,265.6,83.3,-40.1,0.0,52.98,12.84107,77.65978,,944.6733398,,50.0,,1 / 2,3641,2017-10-05 18:47:38:430
-0.488,-10.343,3.863,0.789,-9.717,1.06,-1.269,-0.46,2.741,53.3,12.2,-17.6,9.595,32.5,15.1,-33.9,265.6,83.3,-40.1,0.0,52.98,12.84107,77.65978,,944.6733398,,50.0,,1 / 2,3651,2017-10-05 18:47:38:440
-3.632,-9.416,3.983,0.823,-9.684,1.312,-4.397,0.419,2.607,66.7,6.1,5.0,9.595,30.7,16.6,-34.8,265.6,83.3,-40.1,0.0,52.98,12.84107,77.65978,,944.6733398,,50.0,,1 / 2,3661,2017-10-05 18:47:38:450
-3.632,-9.416,3.983,0.823,-9.684,1.312,-4.397,0.419,2.607,63.0,3.0,42.8,9.595,30.7,16.6,-34.8,265.6,83.3,-40.1,0.0,52.98,12.84107,77.65978,,944.6733398,,50.0,,1 / 2,3671,2017-10-05 18:47:38:460
-3.403,-11.464,4.196,0.765,-9.639,1.633,-4.113,-1.64,2.495,63.0,3.0,42.8,9.595,29.5,17.8,-35.7,255.5,80.9,-32.1,0.0,52.98,12.84107,77.65978,,944.6733398,,50.0,,1 / 2,3681,2017-10-05 18:47:38:470
-3.403,-11.464,4.196,0.765,-9.639,1.633,-4.113,-1.64,2.495,61.5,4.7,62.1,9.595,29.5,17.8,-35.7,255.5,80.9,-32.1,0.0,52.98,12.84107,77.65978,,944.6733398,,50.0,,1 / 2,3692,2017-10-05 18:47:38:481
1.222,-10.531,4.737,0.536,-9.585,2.002,0.666,-0.777,2.659,47.6,11.5,59.8,9.595,28.6,18.5,-36.4,255.5,80.9,-32.1,0.0,52.98,12.84107,77.65978,,944.6733398,,50.0,,1 / 2,3702,2017-10-05 18:47:38:491
1.17,-10.195,4.599,0.452,-9.557,2.15,0.698,-0.474,2.375,47.6,11.5,59.8,9.595,28.6,18.5,-36.4,255.5,80.9,-32.1,0.0,52.98,12.84107,77.65978,,944.6733398,,50.0,,1 / 2,3712,2017-10-05 18:47:38:501
1.17,-10.195,4.599,0.452,-9.557,2.15,0.698,-0.474,2.375,37.4,28.9,69.7,9.595,28.6,18.5,-36.4,255.5,80.9,-32.1,0.0,52.0,12.84107,77.65978,,944.6733398,,50.0,,1 / 2,3721,2017-10-05 18:47:38:510
-3.227,-8.688,4.301,0.171,-9.505,2.407,-3.346,0.957,1.825,37.4,28.9,69.7,9.595,28.1,18.8,-36.9,234.0,77.1,-11.9,0.0,52.0,12.84107,77.65978,,944.6733398,,50.0,,1 / 2,3731,2017-10-05 18:47:38:520
-3.227,-8.688,4.301,0.171,-9.505,2.407,-3.346,0.957,1.825,24.2,38.6,117.0,9.595,28.1,18.8,-36.9,234.0,77.1,-11.9,0.0,52.0,12.84107,77.65978,,944.6733398,,50.0,,1 / 2,3742,2017-10-05 18:47:38:531
-8.872,-8.112,1.933,-0.241,-9.444,2.631,-8.489,1.462,-0.729,5.4,45.1,227.4,9.595,28.0,18.5,-37.3,234.0,77.1,-11.9,0.0,52.0,12.84107,77.65978,,944.6733398,,50.0,,1 / 2,3751,2017-10-05 18:47:38:540
-8.872,-8.112,1.933,-0.241,-9.444,2.631,-8.489,1.462,-0.729,5.4,45.1,227.4,9.595,28.0,18.5,-37.3,234.0,77.1,-11.9,0.0,52.0,12.84107,77.65978,,944.6733398,,50.0,,1 / 2,3761,2017-10-05 18:47:38:550
-13.012,-6.042,0.965,-0.785,-9.366,2.798,-12.018,3.421,-1.849,5.4,45.1,227.4,9.595,28.3,17.8,-37.6,215.6,74.4,5.2,0.0,52.0,12.84107,77.65978,,944.6733398,,50.0,,1 / 2,3771,2017-10-05 18:47:38:560
-13.012,-6.042,0.965,-0.785,-9.366,2.798,-12.018,3.421,-1.849,16.4,115.8,336.4,9.595,28.3,17.8,-37.6,215.6,74.4,5.2,0.0,52.0,12.84107,77.65978,,944.6733398,,50.0,,1 / 2,3781,2017-10-05 18:47:38:570
1.281,-17.126,2.844,-2.078,-9.166,2.8,3.338,-7.685,-0.002,-21.3,219.4,340.2,9.595,28.7,16.6,-37.5,215.6,74.4,5.2,0.0,52.0,12.84107,77.65978,,944.6733398,,50.0,,1 / 2,3791,2017-10-05 18:47:38:580
1.281,-17.126,2.844,-2.078,-9.166,2.8,3.338,-7.685,-0.002,-30.2,265.5,205.4,9.595,28.7,16.6,-37.5,215.6,74.4,5.2,0.0,52.0,12.84107,77.65978,,944.6733398,,50.0,,1 / 2,3801,2017-10-05 18:47:38:590
6.26,-12.724,6.561,-2.974,-8.982,2.578,9.133,-3.538,3.878,-30.2,265.5,205.4,9.595,29.3,15.1,-37.4,181.8,69.2,36.6,0.0,52.0,12.84107,77.65978,,944.6733398,,50.0,,1 / 2,3811,2017-10-05 18:47:38:600
6.26,-12.724,6.561,-2.974,-8.982,2.578,9.133,-3.538,3.878,-30.2,265.5,205.4,9.595,29.3,15.1,-37.4,181.8,69.2,36.6,0.0,52.0,12.84107,77.65978,,944.6733398,,50.0,,1 / 2,3821,2017-10-05 18:47:38:610
2.282,-8.524,6.381,-3.746,-8.786,2.224,5.991,0.399,4.054,-30.2,265.5,205.4,9.595,30.3,13.1,-37.0,181.8,69.2,36.6,0.0,52.0,12.84107,77.65978,,944.6733398,,50.0,,1 / 2,3831,2017-10-05 18:47:38:620
2.282,-8.524,6.381,-3.746,-8.786,2.224,5.991,0.399,4.054,120.0,266.3,-100.9,5.33,30.3,13.1,-37.0,181.8,69.2,36.6,0.0,52.0,12.84107,77.65978,,944.6733398,,50.0,,1 / 2,3841,2017-10-05 18:47:38:630
-4.827,-8.103,3.71,-3.596,-8.865,2.157,-1.153,0.892,1.493,120.0,266.3,-100.9,5.33,31.8,10.7,-36.2,158.0,63.6,59.3,0.0,52.0,12.84107,77.65978,,944.6733398,,50.0,,1 / 2,3851,2017-10-05 18:47:38:640
-4.827,-8.103,3.71,-3.596,-8.865,2.157,-1.153,0.892,1.493,168.5,275.8,-136.1,5.33,31.8,10.7,-36.2,158.0,63.6,59.3,0.0,52.0,12.84107,77.65978,,944.6733398,,50.0,,1 / 2,3861,2017-10-05 18:47:38:650
-8.639,-10.61,-0.02,-3.793,-8.779,2.172,-4.707,-1.66,-2.192,168.5,275.8,-136.1,5.33,33.4,8.4,-34.9,158.0,63.6,59.3,0.0,52.0,12.84107,77.65978,,944.6733398,,50.0,,1 / 2,3871,2017-10-05 18:47:38:660
-8.639,-10.61,-0.02,-3.793,-8.779,2.172,-4.707,-1.66,-2.192,120.1,306.1,-118.2,5.33,33.4,8.4,-34.9,158.0,63.6,59.3,0.0,52.0,12.84107,77.65978,,944.6733398,,50.0,,1 / 2,3881,2017-10-05 18:47:38:670
-7.217,-7.508,-3.995,-3.718,-8.831,2.091,-3.383,1.443,-6.022,9.5,329.2,-85.1,5.33,35.2,6.4,-33.4,164.0,63.5,60.2,0.0,52.0,12.84107,77.65978,,944.6733398,,50.0,,1 / 2,3891,2017-10-05 18:47:38:680
-7.217,-7.508,-3.995,-3.704,-8.873,1.927,-3.397,1.485,-5.858,9.5,329.2,-85.1,5.33,37.3,4.5,-31.0,164.0,63.5,60.2,0.0,52.0,12.84107,77.65978,,944.6733398,,50.0,,1 / 2,3903,2017-10-05 18:47:38:692
-7.217,-7.508,-3.995,-3.704,-8.873,1.927,-3.397,1.485,-5.858,-95.4,346.4,-55.5,5.33,37.3,4.5,-31.0,164.0,63.5,60.2,0.0,52.0,12.84107,77.65978,,944.6733398,,50.0,,1 / 2,3912,2017-10-05 18:47:38:701
-5.956,-7.86,-2.363,-3.668,-8.977,1.461,-2.192,1.243,-3.786,-95.4,346.4,-55.5,5.33,39.3,3.1,-28.2,164.0,63.5,60.2,0.0,52.0,12.84107,77.65978,,944.6733398,,50.0,,1 / 2,3921,2017-10-05 18:47:38:710
-5.956,-7.86,-2.363,-3.668,-8.977,1.461,-2.192,1.243,-3.786,-151.2,342.3,-21.2,5.33,39.3,3.1,-28.2,164.0,63.5,60.2,0.0,52.0,12.84107,77.65978,,944.6733398,,50.0,,1 / 2,3931,2017-10-05 18:47:38:720
-4.411,-5.449,10.198,-3.738,-9.053,0.493,-0.602,3.691,9.542,-98.8,160.8,22.8,5.33,41.2,2.4,-24.7,169.3,66.3,68.3,0.0,52.0,12.84107,77.65978,,944.6733398,,50.0,,1 / 2,3942,2017-10-05 18:47:38:731
-4.411,-5.449,10.198,-3.738,-9.053,0.493,-0.602,3.691,9.542,-98.8,160.8,22.8,5.33,41.2,2.4,-24.7,169.3,66.3,68.3,0.0,52.0,12.84107,77.65978,,944.6733398,,50.0,,1 / 2,3951,2017-10-05 18:47:38:740
-5.488,-5.526,6.963,-3.735,-9.067,-0.095,-1.665,3.63,6.946,-48.6,-5.3,43.4,5.33,43.2,1.9,-20.5,169.3,66.3,68.3,0.0,52.0,12.84107,77.65978,,944.6733398,,50.0,,1 / 2,3961,2017-10-05 18:47:38:750
-5.488,-5.526,6.963,-3.797,-9.038,-0.241,-1.603,3.602,7.092,-48.6,-5.3,43.4,5.33,43.2,1.9,-20.5,169.3,66.3,68.3,0.0,52.0,12.84107,77.65978,,944.6733398,,50.0,,1 / 2,3971,2017-10-05 18:47:38:760
-5.488,-5.526,6.963,-3.797,-9.038,-0.241,-1.603,3.602,7.092,-23.2,-129.2,47.0,5.33,43.2,1.9,-20.5,169.3,66.3,68.3,0.0,52.0,12.84107,77.65978,,944.6733398,,50.0,,1 / 2,3981,2017-10-05 18:47:38:770
1.149,-12.822,6.595,-3.903,-8.992,0.286,5.034,-3.625,6.203,24.9,-275.9,44.5,5.33,44.8,2.3,-16.1,154.6,67.2,93.6,0.0,52.0,12.84107,77.65978,,944.6733398,,50.0,,1 / 2,3991,2017-10-05 18:47:38:780
1.149,-12.822,6.595,-3.903,-8.992,0.286,5.034,-3.625,6.203,24.9,-275.9,44.5,5.33,44.8,2.3,-16.1,154.6,67.2,93.6,0.0,52.0,12.84107,77.65978,,944.6733398,,50.0,,1 / 2,4001,2017-10-05 18:47:38:790
9.814,-4.908,-1.825,-3.876,-8.961,0.919,13.533,4.131,-2.715,35.0,-408.1,-12.6,7.463,46.2,2.8,-11.9,154.6,67.2,93.6,0.0,52.0,12.84107,77.65978,,944.6733398,,50.0,,1 / 2,4012,2017-10-05 18:47:38:801
9.814,-4.908,-1.825,-3.876,-8.961,0.919,13.533,4.131,-2.715,35.0,-408.1,-12.6,7.463,46.2,2.8,-11.9,154.6,67.2,93.6,0.0,52.0,12.84107,77.65978,,944.6733398,,50.0,,1 / 2,4021,2017-10-05 18:47:38:810
0.016,-4.785,-14.681,-3.367,-9.064,1.637,3.382,4.356,-16.082,-61.4,-319.8,-161.7,7.463,47.2,3.0,-8.8,182.8,66.0,76.7,0.0,52.63,12.84107,77.65978,,944.6733398,,50.0,,1 / 2,4031,2017-10-05 18:47:38:820
-5.981,-4.066,-3.497,-3.39,-9.031,1.764,-2.495,5.03,-5.205,-90.8,-75.4,-169.8,7.463,47.8,3.5,-6.6,182.8,66.0,76.7,0.0,52.63,12.84107,77.65978,,944.6733398,,50.0,,1 / 2,4042,2017-10-05 18:47:38:831
-5.981,-4.066,-3.497,-3.39,-9.031,1.764,-2.495,5.03,-5.205,-90.8,-75.4,-169.8,7.463,47.8,3.5,-6.6,182.8,66.0,76.7,0.0,52.63,12.84107,77.65978,,944.6733398,,50.0,,1 / 2,4051,2017-10-05 18:47:38:840
-6.411,-11.887,1.548,-2.862,-9.217,1.741,-3.445,-2.48,-0.219,-61.2,24.9,-124.8,7.463,47.8,4.0,-6.2,182.8,66.0,76.7,0.0,52.63,12.84107,77.65978,,944.6733398,,50.0,,1 / 2,4061,2017-10-05 18:47:38:850
-6.411,-11.887,1.548,-2.862,-9.217,1.741,-3.445,-2.48,-0.219,-37.8,40.2,-108.6,7.463,47.8,4.0,-6.2,182.8,66.0,76.7,0.0,52.63,12.84107,77.65978,,944.6733398,,50.0,,1 / 2,4071,2017-10-05 18:47:38:860
-7.792,-15.709,1.245,-2.355,-9.449,1.154,-5.311,-6.008,0.071,-37.8,40.2,-108.6,7.463,47.8,4.7,-6.5,206.5,70.0,58.7,0.0,52.63,12.84107,77.65978,,944.6733398,,50.0,,1 / 2,4081,2017-10-05 18:47:38:870
-9.806,-13.828,2.635,-2.232,-9.514,0.818,-7.416,-4.092,1.774,-37.8,40.2,-108.6,7.463,47.8,4.7,-6.5,206.5,70.0,58.7,0.0,52.63,12.84107,77.65978,,944.6733398,,50.0,,1 / 2,4090,2017-10-05 18:47:38:879
-9.806,-13.828,2.635,-2.232,-9.514,0.818,-7.416,-4.092,1.774,-15.5,29.0,-86.2,7.463,47.8,4.7,-6.5,206.5,70.0,58.7,0.0,52.63,12.84107,77.65978,,944.6733398,,50.0,,1 / 2,4101,2017-10-05 18:47:38:890
-7.311,-9.271,1.813,-1.94,-9.584,0.741,-5.254,0.462,1.043,20.4,27.2,-53.9,7.463,47.5,5.7,-7.5,206.5,70.0,58.7,0.0,52.63,12.84107,77.65978,,944.6733398,,50.0,,1 / 2,4111,2017-10-05 18:47:38:900
-7.311,-9.271,1.813,-1.94,-9.584,0.741,-5.254,0.462,1.043,73.7,93.8,-12.8,7.463,47.5,5.7,-7.5,206.5,70.0,58.7,0.0,52.63,12.84107,77.65978,,944.6733398,,50.0,,1 / 2,4121,2017-10-05 18:47:38:910
-4.746,-6.568,0.355,-1.79,-9.607,0.823,-2.88,3.144,-0.474,73.7,93.8,-12.8,7.463,47.2,6.7,-9.2,190.6,77.8,69.1,0.0,52.63,12.84107,77.65978,,944.6733398,,50.0,,1 / 2,4131,2017-10-05 18:47:38:920
-4.746,-6.568,0.355,-1.79,-9.607,0.823,-2.88,3.144,-0.474,104.2,159.4,25.7,7.463,47.2,6.7,-9.2,190.6,77.8,69.1,0.0,52.63,12.84107,77.65978,,944.6733398,,50.0,,1 / 2,4141,2017-10-05 18:47:38:930
-0.181,-9.454,-0.952,-1.931,-9.551,1.107,1.753,0.248,-2.043,104.2,159.4,25.7,7.463,47.0,8.0,-11.2,190.6,77.8,69.1,0.0,52.63,12.84107,77.65978,,944.6733398,,50.0,,1 / 2,4151,2017-10-05 18:47:38:940
3.589,-10.451,-1.752,-1.852,-9.563,1.134,5.383,-0.72,-2.858,104.2,159.4,25.7,7.463,46.5,9.3,-13.0,190.6,77.8,69.1,0.0,52.63,12.84107,77.65978,,944.6733398,,50.0,,1 / 2,4161,2017-10-05 18:47:38:950
3.589,-10.451,-1.752,-1.852,-9.563,1.134,5.383,-0.72,-2.858,91.3,155.6,28.8,6.397,46.5,9.3,-13.0,190.6,77.8,69.1,0.0,52.63,12.84107,77.65978,,944.6733398,,50.0,,1 / 2,4171,2017-10-05 18:47:38:960
3.279,-12.389,-1.508,-1.933,-9.526,1.299,5.16,-2.664,-2.783,39.1,90.7,-13.2,6.397,46.3,10.6,-14.1,198.5,76.3,56.1,0.0,52.63,12.84107,77.65978,,944.6733398,,50.0,,1 / 2,4181,2017-10-05 18:47:38:970
3.279,-12.389,-1.508,-1.933,-9.526,1.299,5.16,-2.664,-2.783,39.1,90.7,-13.2,6.397,46.3,10.6,-14.1,198.5,76.3,56.1,0.0,52.63,12.84107,77.65978,,944.6733398,,50.0,,1 / 2,4191,2017-10-05 18:47:38:980
-1.121,-8.858,-0.059,-1.938,-9.522,1.32,0.835,0.807,-1.377,7.7,78.6,-53.9,6.397,46.1,11.6,-14.3,198.5,76.3,56.1,0.0,52.63,12.84107,77.65978,,944.6733398,,50.0,,1 / 2,4200,2017-10-05 18:47:38:989
-1.121,-8.858,-0.059,-1.938,-9.522,1.32,0.835,0.807,-1.377,15.6,122.4,-45.9,6.397,46.1,11.6,-14.3,198.5,76.3,56.1,0.0,52.63,12.84107,77.65978,,944.6733398,,50.0,,1 / 2,4211,2017-10-05 18:47:39:000
-4.209,-6.952,0.786,-1.881,-9.544,1.242,-2.26,2.703,-0.469,27.2,140.7,-26.0,6.397,46.5,12.7,-13.9,198.4,76.7,56.6,0.0,52.63,12.84107,77.65978,,944.6733398,,50.0,,1 / 2,4221,2017-10-05 18:47:39:010
-3.282,-9.241,1.409,-1.863,-9.555,1.187,-1.366,0.461,0.199,27.2,140.7,-26.0,6.397,46.5,12.7,-13.9,198.4,76.7,56.6,0.0,52.63,12.84107,77.65978,,944.6733398,,50.0,,1 / 2,4231,2017-10-05 18:47:39:020
-3.282,-9.241,1.409,-1.863,-9.555,1.187,-1.366,0.461,0.199,27.2,140.7,-26.0,6.397,46.5,12.7,-13.9,198.4,76.7,56.6,0.0,52.63,12.84107,77.65978,,944.6733398,,50.0,,1 / 2,4241,2017-10-05 18:47:39:030
-1.523,-8.889,2.605,-1.789,-9.575,1.136,0.291,0.829,1.427,29.5,96.8,-21.3,6.397,46.6,13.4,-12.6,198.4,76.7,56.6,0.0,52.63,12.84107,77.65978,,944.6733398,,50.0,,1 / 2,4251,2017-10-05 18:47:39:040
-1.523,-8.889,2.605,-1.789,-9.575,1.136,0.291,0.829,1.427,48.5,52.0,-21.0,6.397,46.6,13.4,-12.6,198.4,76.7,56.6,0.0,52.63,12.84107,77.65978,,944.6733398,,50.0,,1 / 2,4261,2017-10-05 18:47:39:050
-1.523,-8.889,2.605,-1.789,-9.575,1.136,0.291,0.829,1.427,48.5,52.0,-21.0,6.397,46.6,13.4,-12.6,198.4,76.7,56.6,0.0,52.63,12.84107,77.65978,,944.6733398,,50.0,,1 / 2,4271,2017-10-05 18:47:39:060
0.21,-7.236,3.22,-1.742,-9.568,1.259,1.949,2.449,1.908,48.5,52.0,-21.0,6.397,47.0,13.8,-11.0,201.0,77.5,57.6,0.0,52.63,12.84107,77.65978,,944.6733398,,50.0,,1 / 2,4281,2017-10-05 18:47:39:070
2.362,-10.134,2.37,-1.631,-9.569,1.391,3.955,-0.402,0.941,59.2,24.7,-39.2,6.397,47.2,14.0,-9.4,201.0,77.5,57.6,0.0,52.63,12.84107,77.65978,,944.6733398,,50.0,,1 / 2,4291,2017-10-05 18:47:39:080
2.362,-10.134,2.37,-1.631,-9.569,1.391,3.955,-0.402,0.941,47.4,-32.0,-73.6,6.397,47.2,14.0,-9.4,201.0,77.5,57.6,0.0,52.63,12.84107,77.65978,,944.6733398,,50.0,,1 / 2,4301,2017-10-05 18:47:39:090
-2.885,-10.606,2.663,-1.443,-9.565,1.615,-1.395,-0.871,1.006,44.4,-97.5,-82.8,6.397,47.6,14.1,-7.8,213.7,77.4,49.5,0.0,52.63,12.84107,77.65978,,944.6733398,,50.0,,1 / 2,4311,2017-10-05 18:47:39:100
-2.885,-10.606,2.663,-1.443,-9.565,1.615,-1.395,-0.871,1.006,33.1,-197.4,-64.4,6.397,47.6,14.1,-7.8,213.7,77.4,49.5,0.0,52.63,12.84107,77.65978,,944.6733398,,50.0,,1 / 2,4322,2017-10-05 18:47:39:111
-3.172,-12.914,3.424,-1.101,-9.555,1.912,-2.02,-3.152,1.458,33.1,-197.4,-64.4,6.397,47.8,14.3,-6.3,213.7,77.4,49.5,0.0,50.96,12.84107,77.65978,,944.6733398,,50.0,,1 / 2,4332,2017-10-05 18:47:39:121
-3.172,-12.914,3.424,-1.101,-9.555,1.912,-2.02,-3.152,1.458,33.1,-197.4,-64.4,6.397,47.8,14.3,-6.3,213.7,77.4,49.5,0.0,50.96,12.84107,77.65978,,944.6733398,,50.0,,1 / 2,4341,2017-10-05 18:47:39:130
-1.881,-15.34,6.424,-0.739,-9.552,2.095,-1.112,-5.542,4.226,25.9,-300.1,-67.2,6.397,47.8,15.1,-5.5,238.3,77.0,29.9,0.0,50.96,12.84107,77.65978,,944.6733398,,50.0,,1 / 2,4351,2017-10-05 18:47:39:140
-1.881,-15.34,6.424,-0.739,-9.552,2.095,-1.112,-5.542,4.226,39.7,-340.6,-99.1,6.397,47.8,15.1,-5.5,238.3,77.0,29.9,0.0,50.96,12.84107,77.65978,,944.6733398,,50.0,,1 / 2,4361,2017-10-05 18:47:39:150
-0.409,-13.125,3.745,-0.257,-9.535,2.279,-0.146,-3.379,1.405,39.7,-340.6,-99.1,6.397,47.9,16.1,-4.9,238.3,77.0,29.9,0.0,50.96,12.84107,77.65978,,944.6733398,,50.0,,1 / 2,4371,2017-10-05 18:47:39:160
-0.409,-13.125,3.745,-0.257,-9.535,2.279,-0.146,-3.379,1.405,36.0,-238.5,-111.7,6.397,47.9,16.1,-4.9,238.3,77.0,29.9,0.0,50.96,12.84107,77.65978,,944.6733398,,50.0,,1 / 2,4381,2017-10-05 18:47:39:170
-4.478,-9.523,-11.119,0.31,-9.499,2.418,-4.716,0.129,-13.358,36.0,-238.5,-111.7,6.397,47.3,17.3,-4.7,262.6,76.5,6.4,0.0,50.96,12.84107,77.65978,,944.6733398,,50.0,,1 / 2,4391,2017-10-05 18:47:39:180
-4.478,-9.523,-11.119,0.31,-9.499,2.418,-4.716,0.129,-13.358,0.5,-52.0,-84.5,6.397,47.3,17.3,-4.7,262.6,76.5,6.4,0.0,50.96,12.84107,77.65978,,944.6733398,,50.0,,1 / 2,4401,2017-10-05 18:47:39:190
-2.874,-8.293,-1.633,0.582,-9.492,2.395,-3.41,1.332,-4.001,-26.4,15.5,-56.9,6.397,46.8,18.4,-6.0,262.6,76.5,6.4,0.0,50.96,12.84107,77.65978,,944.6733398,,50.0,,1 / 2,4411,2017-10-05 18:47:39:200
-2.874,-8.293,-1.633,0.582,-9.492,2.395,-3.41,1.332,-4.001,-26.4,15.5,-56.9,6.397,46.8,18.4,-6.0,262.6,76.5,6.4,0.0,50.96,12.84107,77.65978,,944.6733398,,50.0,,1 / 2,4421,2017-10-05 18:47:39:210
-3.439,-8.136,0.977,0.928,-9.529,2.124,-4.311,1.523,-1.163,-37.0,16.4,-31.4,6.397,45.8,19.4,-8.2,279.5,75.4,-13.7,0.0,50.96,12.84107,77.65978,,944.6733398,,50.0,,1 / 2,4431,2017-10-05 18:47:39:220
-3.439,-8.136,0.977,0.987,-9.588,1.805,-4.371,1.583,-0.844,-37.0,16.4,-31.4,6.397,44.8,20.4,-10.6,279.5,75.4,-13.7,0.0,50.96,12.84107,77.65978,,944.6733398,,50.0,,1 / 2,4441,2017-10-05 18:47:39:230
-3.439,-8.136,0.977,0.987,-9.588,1.805,-4.371,1.583,-0.844,-26.9,58.9,-7.0,6.397,44.8,20.4,-10.6,279.5,75.4,-13.7,0.0,50.96,12.84107,77.65978,,944.6733398,,50.0,,1 / 2,4451,2017-10-05 18:47:39:240
-4.303,-3.089,1.983,0.988,-9.641,1.5,-5.223,6.601,0.451,18.0,158.1,36.9,6.397,43.5,21.8,-12.6,279.5,75.4,-13.7,0.0,50.96,12.84107,77.65978,,944.6733398,,50.0,,1 / 2,4461,2017-10-05 18:47:39:250
-4.303,-3.089,1.983,0.988,-9.641,1.5,-5.223,6.601,0.451,18.0,158.1,36.9,6.397,43.5,21.8,-12.6,279.5,75.4,-13.7,0.0,50.96,12.84107,77.65978,,944.6733398,,50.0,,1 / 2,4471,2017-10-05 18:47:39:260
4.107,-11.998,-1.552,0.757,-9.668,1.456,3.284,-2.137,-2.984,18.0,158.1,36.9,6.397,42.4,23.5,-14.8,288.6,79.4,-33.4,0.0,50.96,12.84107,77.65978,,944.6733398,,50.0,,1 / 2,4482,2017-10-05 18:47:39:271
4.107,-11.998,-1.552,0.757,-9.668,1.456,3.284,-2.137,-2.984,1.6,134.9,60.5,6.397,42.4,23.5,-14.8,288.6,79.4,-33.4,0.0,50.96,12.84107,77.65978,,944.6733398,,50.0,,1 / 2,4491,2017-10-05 18:47:39:280
4.772,-11.558,4.74,0.736,-9.684,1.361,3.959,-1.689,3.303,-67.2,-90.4,17.5,6.397,41.5,24.4,-16.6,288.6,79.4,-33.4,0.0,50.96,12.84107,77.65978,,944.6733398,,50.0,,1 / 2,4501,2017-10-05 18:47:39:290
4.772,-11.558,4.74,0.736,-9.684,1.361,3.959,-1.689,3.303,-67.2,-90.4,17.5,6.397,41.5,24.4,-16.6,288.6,79.4,-33.4,0.0,50.96,12.84107,77.65978,,944.6733398,,50.0,,1 / 2,4511,2017-10-05 18:47:39:300
4.492,-10.208,6.024,0.69,-9.707,1.214,3.731,-0.337,4.714,-61.1,-171.3,-31.5,6.397,40.8,24.9,-17.8,279.6,80.9,-28.4,0.0,50.96,12.84107,77.65978,,944.6733398,,50.0,,1 / 2,4521,2017-10-05 18:47:39:310
4.492,-10.208,6.024,0.69,-9.707,1.214,3.731,-0.337,4.714,-61.1,-171.3,-31.5,6.397,40.8,24.9,-17.8,279.6,80.9,-28.4,0.0,50.96,12.84107,77.65978,,944.6733398,,50.0,,1 / 2,4531,2017-10-05 18:47:39:320
2.38,-8.866,6.368,0.958,-9.716,0.92,1.384,0.993,5.345,-33.9,-81.4,-68.6,6.397,40.4,25.1,-18.5,279.6,80.9,-28.4,0.0,50.96,12.84107,77.65978,,944.6733398,,50.0,,1 / 2,4541,2017-10-05 18:47:39:330
2.38,-8.866,6.368,0.958,-9.716,0.92,1.384,0.993,5.345,-33.9,-81.4,-68.6,6.397,40.4,25.1,-18.5,279.6,80.9,-28.4,0.0,50.96,12.84107,77.65978,,944.6733398,,50.0,,1 / 2,4551,2017-10-05 18:47:39:340
2.38,-8.866,6.368,0.958,-9.716,0.92,1.384,0.993,5.345,-2.9,42.4,-72.7,6.397,40.4,25.1,-18.5,279.6,80.9,-28.4,0.0,50.96,12.84107,77.65978,,944.6733398,,50.0,,1 / 2,4561,2017-10-05 18:47:39:350
-3.125,-12.568,4.422,1.106,-9.678,1.131,-4.181,-2.688,3.219,31.2,66.7,-52.2,6.397,39.9,25.8,-18.5,294.9,80.7,-44.4,0.0,50.96,12.84107,77.65978,,944.6733398,,50.0,,1 / 2,4571,2017-10-05 18:47:39:360
-4.736,-13.308,-0.352,1.259,-9.63,1.361,-5.919,-3.465,-1.707,48.3,9.2,-15.8,6.397,39.8,26.1,-18.2,294.9,80.7,-44.4,0.0,50.96,12.84107,77.65978,,944.6733398,,50.0,,1 / 2,4581,2017-10-05 18:47:39:370
-4.736,-13.308,-0.352,1.259,-9.63,1.361,-5.919,-3.465,-1.707,48.3,9.2,-15.8,6.397,39.8,26.1,-18.2,294.9,80.7,-44.4,0.0,50.96,12.84107,77.65978,,944.6733398,,50.0,,1 / 2,4591,2017-10-05 18:47:39:380
-3.074,-11.746,-4.919,1.249,-9.573,1.724,-4.273,-1.984,-6.564,37.1,-62.0,24.1,6.397,39.7,26.7,-17.9,294.3,79.1,-42.8,0.0,50.96,12.84107,77.65978,,944.6733398,,50.0,,1 / 2,4602,2017-10-05 18:47:39:391
-3.074,-11.746,-4.919,1.249,-9.573,1.724,-4.273,-1.984,-6.564,37.1,-62.0,24.1,6.397,39.7,26.7,-17.9,294.3,79.1,-42.8,0.0,50.96,12.84107,77.65978,,944.6733398,,50.0,,1 / 2,4611,2017-10-05 18:47:39:400
1.203,-9.94,-7.146,1.267,-9.544,1.866,-0.083,-0.237,-8.897,-3.4,-67.7,39.4,6.397,40.0,27.1,-17.6,294.3,79.1,-42.8,0.0,50.96,12.84107,77.65978,,944.6733398,,50.0,,1 / 2,4621,2017-10-05 18:47:39:410
1.203,-9.94,-7.146,1.267,-9.544,1.866,-0.083,-0.237,-8.897,-77.2,16.3,33.8,6.397,40.0,27.1,-17.6,294.3,79.1,-42.8,0.0,50.96,12.84107,77.65978,,944.6733398,,50.0,,1 / 2,4632,2017-10-05 18:47:39:421
3.846,-10.106,-7.0,1.267,-9.544,1.866,-0.083,-0.237,-8.897,-77.2,16.3,33.8,6.397,40.0,27.1,-17.6,294.3,79.1,-42.8,0.0,50.96,12.84107,77.65978,,944.6733398,,50.0,,1 / 2,4641,2017-10-05 18:47:39:430
3.846,-10.106,-7.0,1.186,-9.586,1.695,2.599,-0.358,-8.583,-77.2,16.3,33.8,6.397,40.0,26.9,-17.7,287.5,76.7,-34.2,0.0,50.96,12.84107,77.65978,,944.6733398,,50.0,,1 / 2,4651,2017-10-05 18:47:39:440
4.601,-12.176,-3.449,1.186,-9.586,1.695,3.402,-2.283,-4.312,-149.9,36.6,14.4,6.397,39.8,27.1,-18.2,287.5,76.7,-34.2,0.0,50.96,12.84107,77.65978,,944.6733398,,50.0,,1 / 2,4661,2017-10-05 18:47:39:450
4.601,-12.176,-3.449,1.125,-9.698,0.918,3.402,-2.283,-4.312,-149.9,36.6,14.4,6.397,39.8,27.1,-18.2,287.5,76.7,-34.2,0.0,53.24,12.84107,77.65978,,944.6733398,,50.0,,1 / 2,4671,2017-10-05 18:47:39:460
0.52,-7.785,3.095,1.125,-9.698,0.918,3.402,-2.283,2.925,-176.9,7.6,-29.8,6.397,39.7,27.5,-18.7,299.8,81.5,-50.8,0.0,53.24,12.84107,77.65978,,944.6733398,,50.0,,1 / 2,4681,2017-10-05 18:47:39:470
0.52,-7.785,3.095,1.284,-9.721,0.12,-0.772,2.062,2.925,-158.5,0.6,-70.4,7.463,39.7,27.5,-18.7,299.8,81.5,-50.8,0.0,53.24,12.84107,77.65978,,944.6733398,,50.0,,1 / 2,4692,2017-10-05 18:47:39:481
-2.3,-3.549,4.568,1.42,-9.688,-0.54,-3.683,6.197,5.034,-100.5,27.4,-89.5,7.463,39.4,28.3,-18.3,299.8,81.5,-50.8,0.0,53.24,12.84107,77.65978,,944.6733398,,50.0,,1 / 2,4702,2017-10-05 18:47:39:491
-2.3,-3.549,4.568,1.42,-9.688,-0.54,-3.683,6.197,5.034,-100.5,27.4,-89.5,7.463,39.4,28.3,-18.3,299.8,81.5,-50.8,0.0,53.24,12.84107,77.65978,,944.6733398,,50.0,,1 / 2,4711,2017-10-05 18:47:39:500
-2.3,-3.549,4.568,1.42,-9.688,-0.54,-3.683,6.197,5.034,-100.5,27.4,-89.5,7.463,39.4,28.3,-17.6,356.4,81.1,-110.8,0.0,53.24,12.84107,77.65978,,944.6733398,,50.0,,1 / 2,4721,2017-10-05 18:47:39:510
-2.924,-6.633,4.056,1.705,-9.617,-0.886,-4.582,3.09,4.877,-34.7,71.1,-70.1,7.463,39.3,28.7,-17.6,356.4,81.1,-110.8,0.0,53.24,12.84107,77.65978,,944.6733398,,50.0,,1 / 2,4731,2017-10-05 18:47:39:520
-2.924,-6.633,3.282,1.931,-9.579,-0.831,-3.466,-1.975,4.06,-34.7,71.1,-70.1,7.463,39.1,29.8,-16.6,356.4,81.1,-110.8,0.0,53.24,12.84107,77.65978,,944.6733398,,50.0,,1 / 2,4741,2017-10-05 18:47:39:530
-1.56,-11.742,3.282,1.931,-9.579,-0.831,-3.466,-1.975,4.06,21.0,85.9,-61.6,7.463,39.1,29.8,-16.6,356.4,81.1,-110.8,0.0,53.24,12.84107,77.65978,,944.6733398,,50.0,,1 / 2,4752,2017-10-05 18:47:39:541
-1.56,-11.742,3.282,1.931,-9.579,-0.831,-3.466,-1.975,4.06,73.0,2.7,-76.5,7.463,39.1,29.8,-16.6,356.4,81.1,-110.8,0.0,53.24,12.84107,77.65978,,944.6733398,,50.0,,1 / 2,4761,2017-10-05 18:47:39:550
-0.205,-15.249,5.789,2.186,-9.544,-0.561,-2.387,-5.461,6.257,137.0,-184.2,-106.8,7.463,38.9,30.7,-15.3,2.0,77.6,-113.3,0.0,53.24,12.84107,77.65978,,944.6733398,,50.0,,1 / 2,4771,2017-10-05 18:47:39:560
-1.862,-11.277,4.242,2.518,-9.478,0.064,-4.351,-1.619,4.11,137.0,-184.2,-106.8,7.463,38.5,31.4,-14.2,2.0,77.6,-113.3,0.0,53.24,12.84107,77.65978,,944.6733398,,50.0,,1 / 2,4781,2017-10-05 18:47:39:570
-1.862,-11.277,4.242,2.518,-9.478,0.064,-4.351,-1.619,4.11,223.6,-242.4,-102.5,7.463,38.5,31.4,-14.2,2.0,77.6,-113.3,0.0,53.24,12.84107,77.65978,,944.6733398,,50.0,,1 / 2,4792,2017-10-05 18:47:39:581
0.615,-7.769,-3.909,2.763,-9.375,0.801,-2.158,1.731,-4.647,257.9,-74.6,-49.8,7.463,37.9,32.5,-13.2,342.6,75.1,-88.5,0.0,53.24,12.84107,77.65978,,944.6733398,,50.0,,1 / 2,4802,2017-10-05 18:47:39:591
0.615,-7.769,-3.909,2.763,-9.375,0.801,-2.158,1.731,-4.647,257.9,-74.6,-49.8,7.463,37.9,32.5,-13.2,342.6,75.1,-88.5,0.0,53.24,12.84107,77.65978,,944.6733398,,50.0,,1 / 2,4811,2017-10-05 18:47:39:600
0.615,-7.769,-3.909,2.763,-9.375,0.801,-2.158,1.731,-4.647,257.9,-74.6,-49.8,7.463,37.9,32.5,-13.2,342.6,75.1,-88.5,0.0,53.24,12.84107,77.65978,,944.6733398,,50.0,,1 / 2,4821,2017-10-05 18:47:39:610
5.482,-7.408,-7.568,2.991,-9.208,1.558,2.403,1.919,-9.005,194.6,16.9,-13.6,7.463,37.1,33.7,-12.9,342.6,75.1,-88.5,0.0,53.24,12.84107,77.65978,,944.6733398,,50.0,,1 / 2,4831,2017-10-05 18:47:39:620
5.482,-7.408,-7.568,2.991,-9.208,1.558,2.403,1.919,-9.005,104.4,38.8,-17.1,7.463,36.2,34.3,-13.5,342.6,75.1,-88.5,0.0,53.24,12.84107,77.65978,,944.6733398,,50.0,,1 / 2,4841,2017-10-05 18:47:39:630
10.925,-7.568,-7.793,3.022,-9.095,2.078,7.728,1.648,-9.746,104.4,38.8,-17.1,7.463,36.2,34.3,-13.5,320.8,69.9,-62.5,0.0,53.24,12.84107,77.65978,,944.6733398,,50.0,,1 / 2,4852,2017-10-05 18:47:39:641
10.925,-7.568,-7.793,3.022,-9.095,2.078,7.728,1.648,-9.746,13.7,29.2,-77.4,4.264,36.2,34.3,-13.5,320.8,69.9,-62.5,0.0,53.24,12.84107,77.65978,,944.6733398,,50.0,,1 / 2,4861,2017-10-05 18:47:39:650
16.113,-8.059,-2.305,3.352,-8.974,2.097,12.502,1.045,-4.365,-15.0,8.0,-168.0,4.264,35.2,34.6,-14.9,320.8,69.9,-62.5,0.0,53.24,12.84107,77.65978,,944.6733398,,50.0,,1 / 2,4871,2017-10-05 18:47:39:660
10.544,-14.027,10.349,3.817,-8.812,1.988,6.558,-4.99,8.195,-15.0,8.0,-168.0,4.264,34.4,34.7,-16.7,314.8,66.2,-58.0,0.0,53.24,12.84107,77.65978,,944.6733398,,50.0,,1 / 2,4881,2017-10-05 18:47:39:670
10.544,-14.027,10.349,3.817,-8.812,1.988,6.558,-4.99,8.195,22.9,-41.0,-256.7,4.264,34.4,34.7,-16.7,314.8,66.2,-58.0,0.0,53.24,12.84107,77.65978,,944.6733398,,50.0,,1 / 2,4891,2017-10-05 18:47:39:680
-3.808,-11.184,8.594,4.68,-8.447,1.708,-8.427,-2.557,6.749,22.9,-41.0,-256.7,4.264,33.4,35.0,-18.4,314.8,66.2,-58.0,0.0,53.24,12.84107,77.65978,,944.6733398,,50.0,,1 / 2,4901,2017-10-05 18:47:39:690
-3.808,-11.184,8.594,4.68,-8.447,1.708,-8.427,-2.557,6.749,68.6,-21.5,-269.9,4.264,33.4,35.0,-18.4,314.8,66.2,-58.0,0.0,53.24,12.84107,77.65978,,944.6733398,,50.0,,1 / 2,4911,2017-10-05 18:47:39:700
-3.808,-11.184,8.594,4.68,-8.447,1.708,-8.427,-2.557,6.749,97.0,24.3,-191.2,4.264,33.4,35.0,-18.4,314.8,66.2,-58.0,0.0,53.24,12.84107,77.65978,,944.6733398,,50.0,,1 / 2,4921,2017-10-05 18:47:39:710
-11.934,-9.865,5.069,5.206,-8.09,1.901,-16.948,-1.616,3.086,97.0,24.3,-191.2,4.264,31.9,35.3,-20.5,321.8,59.5,-70.0,0.0,53.24,12.84107,77.65978,,944.6733398,,50.0,,1 / 2,4931,2017-10-05 18:47:39:720
-10.111,-10.013,2.335,5.668,-7.673,2.274,-15.617,-2.179,0.023,94.4,16.5,-75.8,4.264,30.2,35.9,-22.9,321.8,59.5,-70.0,0.0,53.24,12.84107,77.65978,,944.6733398,,50.0,,1 / 2,4942,2017-10-05 18:47:39:731
-10.111,-10.013,2.335,5.668,-7.673,2.274,-15.617,-2.179,0.023,94.4,16.5,-75.8,4.264,30.2,35.9,-22.9,321.8,59.5,-70.0,0.0,53.24,12.84107,77.65978,,944.6733398,,50.0,,1 / 2,4952,2017-10-05 18:47:39:741
-8.138,-6.473,2.04,5.521,-7.645,2.69,-13.602,1.293,-0.475,62.8,0.1,35.3,4.264,30.2,35.9,-22.9,321.8,59.5,-70.0,0.0,53.24,12.84107,77.65978,,944.6733398,,50.0,,1 / 2,4961,2017-10-05 18:47:39:750
-8.138,-6.473,2.04,5.521,-7.645,2.69,-13.135,0.389,0.044,17.8,42.5,139.9,4.264,28.7,36.7,-24.5,315.8,51.2,-64.0,0.0,53.24,12.84107,77.65978,,944.6733398,,50.0,,1 / 2,4971,2017-10-05 18:47:39:760
-9.097,-11.729,-0.966,5.0,-7.905,2.946,-13.135,0.389,0.044,-23.2,129.6,253.5,4.264,28.7,36.7,-24.5,315.8,51.2,-64.0,0.0,46.41,12.84107,77.65978,,944.6733398,,50.0,,1 / 2,4981,2017-10-05 18:47:39:770
-9.097,-11.729,-0.966,5.0,-7.905,2.946,-13.504,-3.406,-3.995,-23.2,129.6,253.5,4.264,27.2,36.9,-25.7,315.8,51.2,-64.0,0.0,46.41,12.84107,77.65978,,944.6733398,,50.0,,1 / 2,4992,2017-10-05 18:47:39:781
-3.395,-17.585,-9.336,4.326,-8.255,3.053,-13.504,-3.406,-3.995,-111.9,159.2,348.0,4.264,27.2,36.9,-25.7,315.8,51.2,-64.0,0.0,46.41,12.84107,77.65978,,944.6733398,,50.0,,1 / 2,5001,2017-10-05 18:47:39:790
-3.395,-17.585,-9.336,4.326,-8.255,3.053,-13.504,-3.406,-3.995,-111.9,159.2,348.0,4.264,26.2,37.4,-26.4,304.9,57.3,-54.8,0.0,46.41,12.84107,77.65978,,944.6733398,,50.0,,1 / 2,5012,2017-10-05 18:47:39:801
-3.395,-17.585,-9.336,4.326,-8.255,3.053,-7.044,-8.743,-12.217,-111.9,159.2,348.0,4.264,26.2,37.4,-26.4,304.9,57.3,-54.8,0.0,46.41,12.84107,77.65978,,944.6733398,,50.0,,1 / 2,5021,2017-10-05 18:47:39:810
6.432,-21.459,-1.954,3.016,-8.891,2.833,-7.044,-8.743,-12.217,-210.4,157.6,379.0,6.397,26.2,37.4,-26.4,304.9,57.3,-54.8,0.0,46.41,12.84107,77.65978,,944.6733398,,50.0,,1 / 2,5031,2017-10-05 18:47:39:820
6.432,-21.459,-1.954,3.016,-9.31,2.362,3.788,-12.061,-4.707,-220.6,9.6,341.0,6.397,25.5,37.9,-26.6,304.9,57.3,-54.8,0.0,46.41,12.84107,77.65978,,944.6733398,,50.0,,1 / 2,5041,2017-10-05 18:47:39:830
6.168,-17.764,6.956,1.979,-9.31,2.362,3.788,-12.061,-4.707,-220.6,9.6,341.0,6.397,27.6,36.1,-28.7,280.3,71.7,-40.0,0.0,46.41,12.84107,77.65978,,944.6733398,,50.0,,1 / 2,5051,2017-10-05 18:47:39:840
9.946,-15.044,3.932,0.9,-9.639,1.567,8.19,-5.329,1.903,-163.4,-176.3,266.1,6.397,27.6,36.1,-28.7,280.3,71.7,-40.0,0.0,46.41,12.84107,77.65978,,944.6733398,,50.0,,1 / 2,5062,2017-10-05 18:47:39:851
9.946,-15.044,3.932,0.9,-9.639,1.567,8.19,-5.329,1.903,-163.4,-176.3,266.1,6.397,27.6,36.1,-28.7,280.3,71.7,-40.0,0.0,46.41,12.84107,77.65978,,944.6733398,,50.0,,1 / 2,5071,2017-10-05 18:47:39:860
9.269,-10.996,1.944,0.421,-9.758,0.883,8.449,-1.112,0.691,-110.0,-224.1,172.6,6.397,28.7,35.5,-28.3,280.3,71.7,-40.0,0.0,46.41,12.84107,77.65978,,944.6733398,,50.0,,1 / 2,5081,2017-10-05 18:47:39:870
9.269,-10.996,1.944,0.421,-9.758,0.883,7.64,2.277,1.464,-59.2,-144.5,92.1,6.397,30.7,34.1,-27.2,259.2,84.3,-25.5,0.0,46.41,12.84107,77.65978,,944.6733398,,50.0,,1 / 2,5091,2017-10-05 18:47:39:880
9.269,-7.977,1.135,0.104,-9.782,0.691,7.64,2.277,1.464,-59.2,-144.5,92.1,6.397,30.7,34.1,-27.2,259.2,84.3,-25.5,0.0,46.41,12.84107,77.65978,,944.6733398,,50.0,,1 / 2,5101,2017-10-05 18:47:39:890
6.488,-7.977,1.135,0.104,-9.782,0.691,6.291,1.935,0.457,-28.8,-33.0,12.1,6.397,32.9,32.1,-26.6,259.2,84.3,-25.5,0.0,46.41,12.84107,77.65978,,944.6733398,,50.0,,1 / 2,5111,2017-10-05 18:47:39:900
6.488,-7.977,1.135,0.104,-9.782,0.691,6.291,1.935,0.457,-9.0,65.3,-62.3,6.397,32.9,32.1,-26.6,259.2,84.3,-25.5,0.0,46.41,12.84107,77.65978,,944.6733398,,50.0,,1 / 2,5121,2017-10-05 18:47:39:910
3.307,-8.372,1.097,-0.059,-9.792,0.527,3.211,1.555,0.549,-9.0,65.3,-62.3,6.397,35.1,29.9,-26.4,228.7,86.9,6.4,0.0,46.41,12.84107,77.65978,,944.6733398,,50.0,,1 / 2,5131,2017-10-05 18:47:39:920
3.307,-8.372,1.097,-0.059,-9.792,0.527,3.211,1.555,0.549,1.7,136.7,-103.0,6.397,35.1,29.9,-26.4,228.7,86.9,6.4,0.0,46.41,12.84107,77.65978,,944.6733398,,50.0,,1 / 2,5141,2017-10-05 18:47:39:930
0.95,-8.285,0.795,0.207,-9.789,0.554,1.026,1.814,0.486,1.7,136.7,-103.0,6.397,37.3,27.7,-25.9,228.7,86.9,6.4,0.0,46.41,12.84107,77.65978,,944.6733398,,50.0,,1 / 2,5151,2017-10-05 18:47:39:940
0.95,-8.285,0.795,0.207,-9.789,0.554,1.026,1.814,0.486,7.2,158.3,-107.0,6.397,37.3,27.7,-25.9,228.7,86.9,6.4,0.0,46.41,12.84107,77.65978,,944.6733398,,50.0,,1 / 2,5161,2017-10-05 18:47:39:950
1.241,-8.106,1.03,0.363,-9.784,0.559,1.026,1.814,0.486,3.8,97.7,-98.8,6.397,37.3,27.7,-25.9,228.7,86.9,6.4,0.0,46.41,12.84107,77.65978,,944.6733398,,50.0,,1 / 2,5171,2017-10-05 18:47:39:960
1.241,-8.106,1.03,0.363,-9.784,0.559,1.366,1.261,1.707,3.8,97.7,-98.8,6.397,39.1,25.8,-24.8,272.5,86.1,-33.0,0.0,46.41,12.84107,77.65978,,944.6733398,,50.0,,1 / 2,5181,2017-10-05 18:47:39:970
1.918,-8.653,2.33,0.683,-9.764,0.61,1.366,1.261,1.707,3.8,97.7,-98.8,6.397,39.1,25.8,-24.8,272.5,86.1,-33.0,0.0,46.41,12.84107,77.65978,,944.6733398,,50.0,,1 / 2,5191,2017-10-05 18:47:39:980
2.431,-8.952,3.604,1.076,-9.729,0.594,2.195,0.102,2.654,-6.4,-84.6,-121.7,7.463,40.7,24.6,-23.9,272.5,86.1,-33.0,0.0,46.41,12.84107,77.65978,,944.6733398,,50.0,,1 / 2,5201,2017-10-05 18:47:39:990
2.431,-8.952,3.604,1.076,-9.729,0.594,2.195,0.102,2.654,-6.4,-84.6,-121.7,7.463,40.7,24.6,-23.9,272.5,86.1,-33.0,0.0,46.41,12.84107,77.65978,,944.6733398,,50.0,,1 / 2,5211,2017-10-05 18:47:40:000
1.099,-8.551,4.022,1.48,-9.673,0.648,1.159,0.899,2.898,-3.3,-132.3,-136.4,7.463,41.4,23.8,-23.2,304.6,82.8,-61.1,0.0,46.41,12.84107,77.65978,,944.6733398,,50.0,,1 / 2,5221,2017-10-05 18:47:40:010
1.099,-8.551,4.022,1.48,-9.673,0.648,-0.645,1.218,3.315,-3.3,-132.3,-136.4,7.463,41.4,23.6,-22.8,304.6,82.8,-61.1,0.0,46.41,12.84107,77.65978,,944.6733398,,50.0,,1 / 2,5231,2017-10-05 18:47:40:020
1.099,-8.551,4.022,1.48,-9.673,0.648,-0.645,1.218,3.315,-3.3,-132.3,-136.4,7.463,41.4,23.6,-22.8,304.6,82.8,-61.1,0.0,46.41,12.84107,77.65978,,944.6733398,,50.0,,1 / 2,5241,2017-10-05 18:47:40:030
-0.884,-8.134,3.474,1.948,-9.585,0.708,-0.645,1.218,3.315,22.7,-127.3,-139.6,7.463,41.4,23.6,-22.8,304.6,82.8,-61.1,0.0,46.41,12.84107,77.65978,,944.6733398,,50.0,,1 / 2,5251,2017-10-05 18:47:40:040
-0.884,-8.134,3.474,1.948,-9.585,0.708,-4.037,2.377,0.65,67.4,-45.3,-118.6,7.463,40.9,23.8,-23.1,314.5,77.8,-70.0,0.0,46.41,12.84107,77.65978,,944.6733398,,50.0,,1 / 2,5261,2017-10-05 18:47:40:050
-1.912,-7.267,1.54,2.364,-9.463,1.021,-3.905,1.495,-0.899,88.6,26.4,-85.4,7.463,40.0,24.8,-23.0,314.5,77.8,-70.0,0.0,46.41,12.84107,77.65978,,944.6733398,,50.0,,1 / 2,5271,2017-10-05 18:47:40:060
-1.912,-7.267,1.54,2.364,-9.463,1.021,-3.905,1.495,-0.899,88.6,26.4,-85.4,7.463,40.0,24.8,-23.0,314.5,77.8,-70.0,0.0,46.41,12.84107,77.65978,,944.6733398,,50.0,,1 / 2,5281,2017-10-05 18:47:40:070
-1.387,-8.042,0.205,2.675,-9.341,1.328,-3.905,1.495,-0.899,88.6,26.4,-85.4,7.463,40.0,24.8,-23.0,314.5,77.8,-70.0,0.0,46.41,12.84107,77.65978,,944.6733398,,50.0,,1 / 2,5291,2017-10-05 18:47:40:080
-1.387,-8.042,0.205,2.675,-9.341,1.328,-2.187,-3.057,-3.087,77.9,21.3,-74.7,7.463,39.2,26.0,-23.0,309.7,72.3,-63.6,0.0,46.41,12.84107,77.65978,,944.6733398,,50.0,,1 / 2,5301,2017-10-05 18:47:40:090
-0.452,-16.001,-3.355,3.052,-9.192,1.536,-2.187,-3.057,-3.087,31.1,-37.9,-104.0,7.463,39.2,26.0,-23.0,309.7,72.3,-63.6,0.0,47.71,12.84107,77.65978,,944.6733398,,50.0,,1 / 2,5311,2017-10-05 18:47:40:100
-0.452,-16.001,-3.355,3.052,-9.192,1.536,-3.672,-6.62,-4.882,31.1,-37.9,-104.0,7.463,38.2,27.5,-23.0,309.7,72.3,-63.6,0.0,47.71,12.84107,77.65978,,944.6733398,,50.0,,1 / 2,5321,2017-10-05 18:47:40:110
-3.808,-14.132,-2.299,3.413,-9.07,1.502,-3.672,-6.62,-4.882,-22.7,-102.1,-100.5,7.463,38.2,27.5,-23.0,309.7,72.3,-63.6,0.0,47.71,12.84107,77.65978,,944.6733398,,50.0,,1 / 2,5331,2017-10-05 18:47:40:120
-3.808,-14.132,-2.299,3.413,-9.07,1.502,-7.277,-4.889,-3.819,-52.9,-185.2,-36.4,7.463,37.3,28.9,-23.5,312.2,67.6,-66.2,0.0,47.71,12.84107,77.65978,,944.6733398,,50.0,,1 / 2,5341,2017-10-05 18:47:40:130
-7.7,-8.602,0.402,3.633,-9.019,1.281,-7.277,-4.889,-3.819,-52.9,-185.2,-36.4,7.463,37.3,28.9,-23.5,312.2,67.6,-66.2,0.0,47.71,12.84107,77.65978,,944.6733398,,50.0,,1 / 2,5351,2017-10-05 18:47:40:140
-7.7,-8.602,0.402,3.633,-9.019,1.281,-9.007,1.983,-0.966,-45.0,-150.6,38.0,7.463,36.3,29.9,-24.0,312.2,67.6,-66.2,0.0,47.71,12.84107,77.65978,,944.6733398,,50.0,,1 / 2,5361,2017-10-05 18:47:40:150
-5.494,-7.195,0.072,3.773,-9.012,0.851,-9.007,1.983,-0.966,-45.0,-150.6,38.0,5.33,36.3,29.9,-24.0,312.2,67.6,-66.2,0.0,47.71,12.84107,77.65978,,944.6733398,,50.0,,1 / 2,5371,2017-10-05 18:47:40:160
-5.494,-7.195,0.072,3.773,-9.012,0.851,-6.739,0.953,-0.543,-28.5,-56.8,75.5,5.33,34.7,31.1,-25.2,320.2,66.8,-77.3,0.0,47.71,12.84107,77.65978,,944.6733398,,50.0,,1 / 2,5381,2017-10-05 18:47:40:170
-3.131,-8.252,0.152,3.539,-9.13,0.534,-6.739,0.953,-0.543,-16.2,10.8,115.2,5.33,34.7,31.1,-25.2,320.2,66.8,-77.3,0.0,47.71,12.84107,77.65978,,944.6733398,,50.0,,1 / 2,5391,2017-10-05 18:47:40:180
-3.131,-8.252,0.152,3.539,-9.13,0.534,-7.203,2.129,0.154,-16.2,10.8,115.2,5.33,32.9,32.1,-26.4,320.2,66.8,-77.3,0.0,47.71,12.84107,77.65978,,944.6733398,,50.0,,1 / 2,5401,2017-10-05 18:47:40:190
-1.93,-4.722,-0.718,3.089,-9.296,0.47,-7.203,2.129,0.154,-5.5,103.7,201.3,5.33,32.9,32.1,-26.4,320.2,66.8,-77.3,0.0,47.71,12.84107,77.65978,,944.6733398,,50.0,,1 / 2,5411,2017-10-05 18:47:40:200
-1.93,-6.311,-1.107,2.541,-9.463,0.398,-4.65,4.753,-1.216,-5.5,103.7,201.3,5.33,31.2,32.9,-27.5,318.7,71.4,-81.3,0.0,47.71,12.84107,77.65978,,944.6733398,,50.0,,2 / 2,5421,2017-10-05 18:47:40:210
2.155,-6.311,-1.107,2.541,-9.463,0.398,-4.65,4.753,-1.216,-5.5,103.7,201.3,5.33,31.2,32.9,-27.5,318.7,71.4,-81.3,0.0,47.71,12.84107,77.65978,,944.6733398,,50.0,,2 / 2,5431,2017-10-05 18:47:40:220
2.155,-6.311,-1.107,2.541,-9.463,0.398,0.015,3.36,-1.487,-48.6,200.8,253.2,5.33,30.2,33.5,-28.3,318.7,71.4,-81.3,0.0,47.71,12.84107,77.65978,,944.6733398,,50.0,,2 / 2,5441,2017-10-05 18:47:40:230
6.396,-10.717,1.433,1.596,-9.673,0.256,0.015,3.36,-1.487,-121.1,198.1,297.0,5.33,30.2,33.5,-28.3,318.7,71.4,-81.3,0.0,47.71,12.84107,77.65978,,944.6733398,,50.0,,2 / 2,5451,2017-10-05 18:47:40:240
6.396,-10.717,1.433,1.596,-9.673,0.256,5.046,-0.821,1.173,-121.1,198.1,297.0,5.33,29.8,33.5,-28.6,312.0,80.5,-80.9,0.0,47.71,12.84107,77.65978,,944.6733398,,50.0,,2 / 2,5461,2017-10-05 18:47:40:250
13.325,-18.179,6.56,0.781,-9.775,0.064,5.046,-0.821,1.173,-107.5,184.7,273.2,5.33,29.8,33.5,-28.6,312.0,80.5,-80.9,0.0,47.71,12.84107,77.65978,,944.6733398,,50.0,,2 / 2,5472,2017-10-05 18:47:40:261
13.325,-18.179,6.56,0.781,-9.775,0.064,10.979,-8.561,7.168,-32.9,120.7,165.0,5.33,30.0,33.1,-28.6,312.0,80.5,-80.9,0.0,47.71,12.84107,77.65978,,944.6733398,,50.0,,2 / 2,5481,2017-10-05 18:47:40:270
2.492,-9.664,5.396,-0.126,-9.806,-0.068,2.579,0.297,5.378,47.7,46.5,71.1,5.33,31.0,32.4,-27.9,108.9,89.2,118.4,0.0,47.71,12.84107,77.65978,,944.6733398,,50.0,,2 / 2,5491,2017-10-05 18:47:40:280
2.492,-9.664,5.396,-0.126,-9.806,-0.068,2.579,0.297,5.378,47.7,46.5,71.1,5.33,31.0,32.4,-27.9,108.9,89.2,118.4,0.0,47.71,12.84107,77.65978,,944.6733398,,50.0,,2 / 2,5501,2017-10-05 18:47:40:290
2.492,-9.664,5.396,-0.126,-9.806,-0.068,2.579,0.297,5.378,10.9,-149.5,-13.6,5.33,31.0,32.4,-27.9,108.9,89.2,118.4,0.0,47.71,12.84107,77.65978,,944.6733398,,50.0,,2 / 2,5512,2017-10-05 18:47:40:301
-2.422,-7.006,3.16,-0.387,-9.799,-0.002,-1.996,2.905,3.111,10.9,-149.5,-13.6,5.33,32.5,31.1,-26.6,108.9,89.2,118.4,0.0,47.71,12.84107,77.65978,,944.6733398,,50.0,,2 / 2,5521,2017-10-05 18:47:40:310
-2.422,-7.006,3.16,-0.387,-9.799,-0.002,-1.996,2.905,3.111,13.1,-176.4,-17.8,5.33,32.5,31.1,-26.6,108.9,89.2,118.4,0.0,47.71,12.84107,77.65978,,944.6733398,,50.0,,2 / 2,5531,2017-10-05 18:47:40:320
-3.245,-11.247,1.331,-0.316,-9.799,0.211,-2.877,-1.267,1.099,13.1,-176.4,-17.8,7.463,34.1,29.5,-25.0,142.4,87.7,90.3,0.0,47.71,12.84107,77.65978,,944.6733398,,50.0,,2 / 2,5542,2017-10-05 18:47:40:331
-3.245,-11.247,1.331,-0.316,-9.799,0.211,-2.877,-1.267,1.099,35.5,-99.6,26.3,7.463,34.1,29.5,-25.0,142.4,87.7,90.3,0.0,47.71,12.84107,77.65978,,944.6733398,,50.0,,2 / 2,5551,2017-10-05 18:47:40:340
-2.705,-8.815,-2.452,-0.527,-9.773,0.617,-2.135,1.1,-3.029,35.5,-99.6,26.3,7.463,36.4,27.7,-23.9,142.4,87.7,90.3,0.0,47.71,12.84107,77.65978,,944.6733398,,50.0,,2 / 2,5562,2017-10-05 18:47:40:351
-2.705,-8.815,-2.452,-0.527,-9.773,0.617,-2.135,1.1,-3.029,7.7,-125.2,48.8,7.463,36.4,27.7,-23.9,142.4,87.7,90.3,0.0,47.71,12.84107,77.65978,,944.6733398,,50.0,,2 / 2,5572,2017-10-05 18:47:40:361
0.029,-1.008,-7.079,-0.475,-9.767,0.743,0.503,8.775,-7.709,-20.5,-53.2,10.5,7.463,38.5,26.2,-23.0,199.9,85.3,40.5,0.0,47.71,12.84107,77.65978,,944.6733398,,50.0,,2 / 2,5581,2017-10-05 18:47:40:370
0.029,-1.008,-7.079,-0.475,-9.767,0.743,0.503,8.775,-7.709,-73.9,94.0,-29.2,7.463,38.5,26.2,-23.0,199.9,85.3,40.5,0.0,47.71,12.84107,77.65978,,944.6733398,,50.0,,2 / 2,5592,2017-10-05 18:47:40:381
-4.559,-7.224,-5.308,-0.444,-9.777,0.612,-4.041,2.67,-5.835,-73.9,94.0,-29.2,7.463,40.3,24.1,-22.4,199.9,85.3,40.5,0.0,47.71,12.84107,77.65978,,944.6733398,,50.0,,2 / 2,5602,2017-10-05 18:47:40:391
-4.559,-7.224,-5.308,-0.444,-9.777,0.612,-4.041,2.67,-5.835,-73.9,94.0,-29.2,7.463,40.3,24.1,-22.4,199.9,85.3,40.5,0.0,47.71,12.84107,77.65978,,944.6733398,,50.0,,2 / 2,5611,2017-10-05 18:47:40:400
-4.511,-9.253,-4.678,-0.478,-9.792,0.244,-3.961,0.687,-4.847,-134.5,147.1,-26.2,7.463,41.4,22.7,-22.5,206.9,85.6,36.0,0.0,47.71,12.84107,77.65978,,944.6733398,,50.0,,2 / 2,5621,2017-10-05 18:47:40:410
-4.511,-9.253,-4.678,-0.478,-9.792,0.244,-3.961,0.687,-4.847,-157.5,166.3,-14.2,7.463,41.4,22.7,-22.5,206.9,85.6,36.0,0.0,47.71,12.84107,77.65978,,944.6733398,,50.0,,2 / 2,5631,2017-10-05 18:47:40:420
-2.4,-10.986,-0.867,-0.395,-9.792,-0.367,-1.967,-1.018,-0.486,-157.5,166.3,-14.2,7.463,42.2,21.5,-22.4,206.9,85.6,36.0,0.0,47.71,12.84107,77.65978,,944.6733398,,50.0,,2 / 2,5641,2017-10-05 18:47:40:430
-2.4,-10.986,-0.867,-0.395,-9.792,-0.367,-1.967,-1.018,-0.486,-96.0,126.1,-2.5,7.463,42.2,21.5,-22.4,206.9,85.6,36.0,0.0,50.48,12.84107,77.65978,,944.6733398,,50.0,,2 / 2,5652,2017-10-05 18:47:40:441
1.093,-12.611,2.806,-0.335,-9.754,-0.954,1.411,-2.654,3.715,-47.6,131.4,-11.1,7.463,42.1,21.2,-22.8,107.0,86.8,132.9,0.0,50.48,12.84107,77.65978,,944.6733398,,50.0,,2 / 2,5661,2017-10-05 18:47:40:450
1.093,-12.611,2.806,-0.335,-9.754,-0.954,1.411,-2.654,3.715,-47.6,131.4,-11.1,7.463,42.1,21.2,-22.8,107.0,86.8,132.9,0.0,50.48,12.84107,77.65978,,944.6733398,,50.0,,2 / 2,5671,2017-10-05 18:47:40:460
-4.284,-9.201,4.851,-0.167,-9.734,-1.181,-4.048,0.681,5.954,-15.7,125.1,-41.4,7.463,42.0,21.4,-22.8,107.0,86.8,132.9,0.0,50.48,12.84107,77.65978,,944.6733398,,50.0,,2 / 2,5681,2017-10-05 18:47:40:470
-4.284,-9.201,4.851,-0.167,-9.734,-1.181,-4.048,0.681,5.954,-15.7,125.1,-41.4,7.463,42.0,21.4,-22.8,107.0,86.8,132.9,0.0,50.48,12.84107,77.65978,,944.6733398,,50.0,,2 / 2,5691,2017-10-05 18:47:40:480
-8.604,-8.158,5.146,-0.056,-9.733,-1.199,-8.41,1.706,6.263,36.3,85.6,-36.0,7.463,42.2,21.8,-22.6,66.6,83.0,171.9,0.0,50.48,12.84107,77.65978,,944.6733398,,50.0,,2 / 2,5701,2017-10-05 18:47:40:490
-8.604,-8.158,5.146,-0.056,-9.733,-1.199,-8.41,1.706,6.263,36.3,85.6,-36.0,7.463,42.2,21.8,-22.6,66.6,83.0,171.9,0.0,50.48,12.84107,77.65978,,944.6733398,,50.0,,2 / 2,5711,2017-10-05 18:47:40:500
-4.765,-11.565,3.691,-0.057,-9.775,-0.785,-4.631,-1.605,4.417,100.5,78.2,45.7,7.463,42.2,22.4,-21.6,66.6,83.0,171.9,0.0,50.48,12.84107,77.65978,,944.6733398,,50.0,,2 / 2,5721,2017-10-05 18:47:40:510
-4.765,-11.565,3.691,-0.057,-9.775,-0.785,-4.631,-1.605,4.417,150.5,99.3,102.8,7.463,42.2,22.4,-21.6,66.6,83.0,171.9,0.0,50.48,12.84107,77.65978,,944.6733398,,50.0,,2 / 2,5732,2017-10-05 18:47:40:521
7.846,-4.806,-1.765,-0.247,-9.801,-0.211,7.966,5.073,-1.525,150.5,99.3,102.8,7.463,42.4,22.8,-20.4,66.7,85.4,175.8,0.0,50.48,12.84107,77.65978,,944.6733398,,50.0,,2 / 2,5742,2017-10-05 18:47:40:531
7.846,-4.806,-1.765,-0.247,-9.801,-0.211,7.966,5.073,-1.525,117.9,60.7,-17.7,7.463,42.4,22.8,-20.4,66.7,85.4,175.8,0.0,50.48,12.84107,77.65978,,944.6733398,,50.0,,2 / 2,5752,2017-10-05 18:47:40:541
12.309,-8.708,-7.367,-0.312,-9.795,0.373,12.424,1.226,-7.622,46.4,-43.8,-58.6,7.463,42.7,23.8,-18.6,66.7,85.4,175.8,0.0,50.48,12.84107,77.65978,,944.6733398,,50.0,,2 / 2,5761,2017-10-05 18:47:40:550
12.309,-8.708,-7.367,-0.312,-9.795,0.373,12.424,1.226,-7.622,46.4,-43.8,-58.6,7.463,42.7,23.8,-18.6,66.7,85.4,175.8,0.0,50.48,12.84107,77.65978,,944.6733398,,50.0,,2 / 2,5771,2017-10-05 18:47:40:560
2.492,-10.829,-7.011,-0.061,-9.788,0.604,2.514,-0.867,-7.502,-15.0,-68.1,-86.5,7.463,43.5,24.2,-16.5,210.9,87.2,39.9,0.0,50.48,12.84107,77.65978,,944.6733398,,50.0,,2 / 2,5781,2017-10-05 18:47:40:570
2.492,-10.829,-7.011,-0.061,-9.788,0.604,2.514,-0.867,-7.502,-15.0,-68.1,-86.5,7.463,43.5,24.2,-16.5,210.9,87.2,39.9,0.0,50.48,12.84107,77.65978,,944.6733398,,50.0,,2 / 2,5791,2017-10-05 18:47:40:580
2.492,-10.829,-7.011,0.15,-9.797,0.404,1.292,1.645,-7.244,-77.0,-1.0,-112.9,7.463,44.3,24.5,-14.7,210.9,87.2,39.9,0.0,50.48,12.84107,77.65978,,944.6733398,,50.0,,2 / 2,5801,2017-10-05 18:47:40:590
1.465,-8.285,-6.951,0.15,-9.797,0.404,1.292,1.645,-7.244,-77.0,-1.0,-112.9,7.463,44.3,24.5,-14.7,210.9,87.2,39.9,0.0,50.48,12.84107,77.65978,,944.6733398,,50.0,,2 / 2,5812,2017-10-05 18:47:40:601
1.465,-8.285,-6.951,0.498,-9.793,-0.101,-1.449,0.378,-2.531,-116.3,77.3,-117.0,7.463,44.9,24.9,-13.1,275.6,87.5,-20.3,0.0,50.48,12.84107,77.65978,,944.6733398,,50.0,,2 / 2,5821,2017-10-05 18:47:40:610
-2.807,-11.177,2.296,0.498,-9.793,-0.101,-1.449,0.378,-2.531,-114.5,32.6,-110.1,7.463,44.9,24.9,-13.1,275.6,87.5,-20.3,0.0,50.48,12.84107,77.65978,,944.6733398,,50.0,,2 / 2,5831,2017-10-05 18:47:40:620
-2.807,-11.177,2.296,0.88,-9.735,-0.788,-3.642,-1.262,3.048,-114.5,32.6,-110.1,7.463,44.8,25.1,-12.4,275.6,87.5,-20.3,0.0,50.48,12.84107,77.65978,,944.6733398,,50.0,,2 / 2,5841,2017-10-05 18:47:40:630
-2.026,-9.633,2.521,0.88,-9.735,-0.788,-3.642,-1.262,3.048,-114.5,32.6,-110.1,7.463,44.6,25.7,-12.1,275.6,87.5,-20.3,0.0,50.48,12.84107,77.65978,,944.6733398,,50.0,,2 / 2,5851,2017-10-05 18:47:40:640
-2.026,-9.633,2.521,1.187,-9.65,-1.28,-3.181,0.172,3.761,-81.3,1.0,-88.1,7.463,44.6,25.7,-12.1,275.6,87.5,-20.3,0.0,50.48,12.84107,77.65978,,944.6733398,,50.0,,2 / 2,5861,2017-10-05 18:47:40:650
-0.889,-9.645,3.163,1.187,-9.65,-1.28,-3.181,0.172,3.761,-50.6,4.3,-70.3,7.463,44.1,26.3,-11.5,30.5,79.7,-137.1,0.0,50.48,12.84107,77.65978,,944.6733398,,50.0,,2 / 2,5871,2017-10-05 18:47:40:660
-0.889,-9.645,3.163,1.499,-9.556,-1.617,-2.374,0.066,4.73,-50.6,4.3,-70.3,7.463,44.1,26.3,-11.5,30.5,79.7,-137.1,0.0,50.48,12.84107,77.65978,,944.6733398,,50.0,,2 / 2,5881,2017-10-05 18:47:40:670
-1.794,-10.048,-0.228,1.499,-9.556,-1.617,-2.374,0.066,4.73,-18.7,-10.8,-58.0,7.463,43.7,27.3,-10.7,30.5,79.7,-137.1,0.0,50.48,12.84107,77.65978,,944.6733398,,50.0,,2 / 2,5891,2017-10-05 18:47:40:680
-1.794,-10.048,-0.228,1.639,-9.543,-1.556,-5.327,0.492,-1.104,-24.9,-29.2,-32.4,7.463,43.7,27.3,-10.7,30.5,79.7,-137.1,0.0,50.48,12.84107,77.65978,,944.6733398,,50.0,,2 / 2,5901,2017-10-05 18:47:40:690
-3.748,-9.198,-2.704,1.639,-9.543,-1.556,-5.327,0.492,-1.104,-24.9,-29.2,-32.4,7.463,43.0,28.2,-10.3,27.2,76.7,-133.5,0.0,50.48,12.84107,77.65978,,944.6733398,,50.0,,2 / 2,5910,2017-10-05 18:47:40:699
-3.748,-9.198,-2.704,1.764,-9.529,-1.505,-3.676,-0.252,0.618,-28.0,-20.8,-5.0,7.463,43.0,28.2,-10.3,27.2,76.7,-133.5,0.0,50.48,12.84107,77.65978,,944.6733398,,50.0,,2 / 2,5921,2017-10-05 18:47:40:710
-1.943,-9.94,-0.902,1.764,-9.529,-1.505,-3.676,-0.252,0.618,-28.0,-20.8,-5.0,7.463,41.7,29.6,-9.7,27.2,76.7,-133.5,0.0,50.48,12.84107,77.65978,,944.6733398,,50.0,,2 / 2,5931,2017-10-05 18:47:40:720
-1.943,-9.94,-0.902,1.785,-9.521,-1.529,-1.796,-0.594,-0.275,-17.9,2.3,14.1,7.463,41.7,29.6,-9.7,27.2,76.7,-133.5,0.0,50.48,12.84107,77.65978,,944.6733398,,50.0,,2 / 2,5941,2017-10-05 18:47:40:730
3.095,-9.531,1.207,1.785,-9.521,-1.529,-1.796,-0.594,-0.275,3.2,-15.9,21.8,7.463,40.4,31.4,-9.1,24.2,76.1,-130.6,0.0,50.48,12.84107,77.65978,,944.6733398,,50.0,,2 / 2,5951,2017-10-05 18:47:40:740
3.095,-9.531,1.207,1.693,-9.525,-1.604,1.353,0.147,2.791,3.2,-15.9,21.8,7.463,40.4,31.4,-9.1,24.2,76.1,-130.6,0.0,50.48,12.84107,77.65978,,944.6733398,,50.0,,2 / 2,5961,2017-10-05 18:47:40:750
3.095,-9.531,1.207,1.693,-9.525,-1.604,1.353,0.147,2.791,24.6,-16.5,12.7,7.463,40.4,31.4,-9.1,24.2,76.1,-130.6,0.0,56.65,12.84107,77.65978,,944.6733398,,50.0,,2 / 2,5971,2017-10-05 18:47:40:760
2.379,-8.461,-2.793,1.679,-9.535,-1.562,0.662,1.21,-1.185,23.8,-26.4,3.5,7.463,39.5,32.6,-8.3,24.2,76.1,-130.6,0.0,56.65,12.84107,77.65978,,944.6733398,,50.0,,2 / 2,5981,2017-10-05 18:47:40:770
1.677,-8.334,-3.522,1.663,-9.544,-1.519,-0.013,1.345,-1.947,23.8,-26.4,3.5,7.463,39.1,33.4,-7.4,28.1,76.5,-132.9,0.0,56.65,12.84107,77.65978,,944.6733398,,50.0,,2 / 2,5991,2017-10-05 18:47:40:780
1.677,-8.334,-3.522,1.663,-9.544,-1.519,-0.013,1.345,-1.947,10.5,0.3,2.4,7.463,39.1,33.4,-7.4,28.1,76.5,-132.9,0.0,56.65,12.84107,77.65978,,944.6733398,,50.0,,2 / 2,6001,2017-10-05 18:47:40:790
1.174,-8.407,-3.541,1.637,-9.57,-1.383,-0.481,1.298,-2.102,57.9,-10.4,1.8,7.463,38.6,33.9,-6.8,28.1,76.5,-132.9,0.0,56.65,12.84107,77.65978,,944.6733398,,50.0,,2 / 2,6011,2017-10-05 18:47:40:800
1.174,-8.407,-3.541,1.637,-9.57,-1.383,-0.481,1.298,-2.102,57.9,-10.4,1.8,7.463,38.6,33.9,-6.8,28.1,76.5,-132.9,0.0,56.65,12.84107,77.65978,,944.6733398,,50.0,,2 / 2,6021,2017-10-05 18:47:40:810
-0.675,-10.532,10.46,1.622,-9.591,-1.246,-2.286,-0.772,11.538,57.9,-10.4,1.8,7.463,38.6,34.4,-6.6,25.8,77.4,-130.2,0.0,56.65,12.84107,77.65978,,944.6733398,,50.0,,2 / 2,6031,2017-10-05 18:47:40:820
-0.675,-10.532,10.46,1.555,-9.622,-1.078,-2.286,-0.772,11.538,131.2,13.5,40.3,7.463,38.6,34.4,-6.6,25.8,77.4,-130.2,0.0,56.65,12.84107,77.65978,,944.6733398,,50.0,,2 / 2,6041,2017-10-05 18:47:40:830
6.228,-6.749,-11.459,1.555,-9.622,-1.078,4.726,3.009,-10.231,72.5,-128.5,75.3,2.132,38.6,34.4,-6.6,25.8,77.4,-130.2,0.0,56.65,12.84107,77.65978,,944.6733398,,50.0,,2 / 2,6050,2017-10-05 18:47:40:839
6.228,-6.749,-11.459,1.41,-9.68,-0.697,4.726,3.009,-10.231,72.5,-128.5,75.3,2.132,38.6,34.6,-6.5,25.8,77.4,-130.2,0.0,56.65,12.84107,77.65978,,944.6733398,,50.0,,2 / 2,6061,2017-10-05 18:47:40:850
6.228,-6.749,-11.459,1.41,-9.68,-0.697,5.566,-1.63,-10.985,-26.6,-11.1,47.5,2.132,38.6,34.6,-6.5,25.8,77.4,-130.2,0.0,56.65,12.84107,77.65978,,944.6733398,,50.0,,2 / 2,6071,2017-10-05 18:47:40:860
7.018,-11.517,-11.665,1.268,-9.72,-0.286,5.566,-1.63,-10.985,-26.6,-11.1,47.5,2.132,38.9,34.6,-6.7,14.3,80.8,-116.3,0.0,56.65,12.84107,77.65978,,944.6733398,,50.0,,2 / 2,6080,2017-10-05 18:47:40:869
7.018,-11.517,-11.665,1.268,-9.72,-0.286,5.433,2.44,5.062,-55.3,139.1,-8.3,2.132,38.9,34.6,-6.7,14.3,80.8,-116.3,0.0,56.65,12.84107,77.65978,,944.6733398,,50.0,,2 / 2,6091,2017-10-05 18:47:40:880
6.73,-11.345,10.887,1.328,-9.695,-0.639,5.433,2.44,5.062,8.5,24.4,-53.4,2.132,39.6,34.3,-7.3,14.3,80.8,-116.3,0.0,56.65,12.84107,77.65978,,944.6733398,,50.0,,2 / 2,6101,2017-10-05 18:47:40:890
