ACCELEROMETER X (m/s²),ACCELEROMETER Y (m/s²),ACCELEROMETER Z (m/s²),GRAVITY X (m/s²),GRAVITY Y (m/s²),GRAVITY Z (m/s²),LINEAR ACCELERATION X (m/s²),LINEAR ACCELERATION Y (m/s²),LINEAR ACCELERATION Z (m/s²),GYROSCOPE X (°/s),GYROSCOPE Y (°/s),GYROSCOPE Z (°/s),LIGHT (lux),MAGNETIC FIELD X (μT),MAGNETIC FIELD Y (μT),MAGNETIC FIELD Z (μT),ORIENTATION Z (azimuth °),ORIENTATION X (pitch °),ORIENTATION Y (roll °),PROXIMITY (m),SOUND LEVEL (dB),LOCATION Latitude : ,LOCATION Longitude : ,LOCATION Altitude ( m),LOCATION Altitude-google ( m),LOCATION Speed ( Kmh),LOCATION Accuracy ( m),LOCATION ORIENTATION (°),Satellites in range,Time since start in ms ,YYYY-MO-DD HH-MI-SS_SSS
-2.172,4.504,8.103,-1.56,3.808,8.902,-0.577,0.624,-0.929,1.3,1.4,17.8,1.066,-27.9,8.5,-22.9,64.2,-22.8,9.9,5.0,29.0,12.84139,77.66557,,926.7762451,,50.0,,0 / 0,20,2017-10-05 18:57:34:012
-2.147,4.493,8.303,-1.551,3.838,8.89,-0.561,0.583,-0.721,1.7,0.5,20.8,1.066,-27.9,8.7,-22.8,64.2,-22.8,9.9,5.0,29.0,12.84139,77.66557,,926.7762451,,50.0,,0 / 0,31,2017-10-05 18:57:34:023
-2.147,4.493,8.303,-1.551,3.838,8.89,-0.561,0.583,-0.721,1.7,0.5,20.8,1.066,-27.9,8.7,-22.8,64.2,-22.8,9.9,5.0,29.0,12.84139,77.66557,,926.7762451,,50.0,,0 / 0,41,2017-10-05 18:57:34:033
-2.147,4.493,8.303,-1.552,3.86,8.881,-0.56,0.562,-0.711,1.7,0.5,20.8,1.066,-27.9,8.9,-22.8,64.2,-22.8,9.9,5.0,29.0,12.84139,77.66557,,926.7762451,,50.0,,0 / 0,51,2017-10-05 18:57:34:043
-2.144,4.652,8.188,-1.543,3.917,8.857,-0.567,0.661,-0.801,1.3,-1.5,20.1,1.066,-27.9,8.9,-22.9,64.1,-23.2,9.9,5.0,29.0,12.84139,77.66557,,926.7762451,,50.0,,0 / 0,61,2017-10-05 18:57:34:053
-2.144,4.652,8.188,-1.543,3.917,8.857,-0.567,0.661,-0.801,1.4,-2.8,20.1,1.066,-27.9,8.9,-22.9,64.1,-23.2,9.9,5.0,29.0,12.84139,77.66557,,926.7762451,,50.0,,0 / 0,72,2017-10-05 18:57:34:064
-2.229,4.798,7.886,-1.538,3.967,8.836,-0.655,0.755,-1.076,-1.9,1.4,21.5,1.066,-27.9,9.2,-22.8,64.1,-23.2,9.9,5.0,29.0,12.84139,77.66557,,926.7762451,,50.0,,0 / 0,81,2017-10-05 18:57:34:073
-2.229,4.798,7.886,-1.538,3.967,8.836,-0.655,0.755,-1.076,-1.9,1.4,21.5,1.066,-27.9,9.2,-22.8,64.1,-23.2,9.9,5.0,29.0,12.84139,77.66557,,926.7762451,,50.0,,0 / 0,92,2017-10-05 18:57:34:084
-2.229,4.798,7.886,-1.536,3.987,8.827,-0.657,0.735,-1.067,-1.9,1.4,21.5,1.066,-27.9,9.2,-22.8,64.1,-23.2,9.9,5.0,28.23,12.84139,77.66557,,926.7762451,,50.0,,0 / 0,101,2017-10-05 18:57:34:093
-1.826,4.718,8.508,-1.543,4.018,8.812,-0.254,0.625,-0.44,-8.3,5.7,22.5,1.066,-28.1,9.2,-22.8,63.8,-24.0,9.9,5.0,28.23,12.84139,77.66557,,926.7762451,,50.0,,0 / 0,111,2017-10-05 18:57:34:103
-1.826,4.718,8.508,-1.543,4.018,8.812,-0.254,0.625,-0.44,-13.2,13.2,22.9,1.066,-28.1,9.2,-22.8,63.8,-24.0,9.9,5.0,28.23,12.84139,77.66557,,926.7762451,,50.0,,0 / 0,121,2017-10-05 18:57:34:113
-1.384,4.619,9.276,-1.583,4.034,8.797,0.221,0.511,0.33,-10.1,19.2,19.4,1.066,-28.0,9.6,-23.0,63.8,-24.0,9.9,5.0,28.23,12.84139,77.66557,,926.7762451,,50.0,,0 / 0,130,2017-10-05 18:57:34:122
-1.384,4.619,9.276,-1.583,4.034,8.797,0.221,0.511,0.33,-10.1,19.2,19.4,1.066,-28.0,9.6,-23.0,63.8,-24.0,9.9,5.0,28.23,12.84139,77.66557,,926.7762451,,50.0,,0 / 0,141,2017-10-05 18:57:34:133
-1.894,4.962,9.599,-1.619,4.074,8.772,-0.245,0.809,0.673,-1.8,20.9,18.9,1.066,-27.8,10.0,-23.1,62.6,-24.3,10.2,5.0,28.23,12.84139,77.66557,,926.7762451,,50.0,,0 / 0,152,2017-10-05 18:57:34:144
-1.894,4.962,9.599,-1.619,4.074,8.772,-0.245,0.809,0.673,-1.8,20.9,18.9,1.066,-27.8,10.0,-23.1,62.6,-24.3,10.2,5.0,28.23,12.84139,77.66557,,926.7762451,,50.0,,0 / 0,161,2017-10-05 18:57:34:153
-1.859,5.014,9.373,-1.645,4.105,8.753,-0.184,0.828,0.47,2.1,18.0,19.9,1.066,-28.0,10.0,-23.5,62.6,-24.3,10.2,5.0,28.23,12.84139,77.66557,,926.7762451,,50.0,,0 / 0,171,2017-10-05 18:57:34:163
-1.323,4.857,9.482,-1.649,4.123,8.744,0.347,0.656,0.586,2.1,18.0,19.9,1.066,-27.8,10.4,-23.6,62.6,-24.3,10.2,5.0,28.23,12.84139,77.66557,,926.7762451,,50.0,,0 / 0,181,2017-10-05 18:57:34:173
-1.323,4.857,9.482,-1.649,4.123,8.744,0.347,0.656,0.586,6.2,11.3,18.0,1.066,-27.8,10.4,-23.6,62.6,-24.3,10.2,5.0,28.23,12.84139,77.66557,,926.7762451,,50.0,,0 / 0,191,2017-10-05 18:57:34:183
-0.945,4.894,8.97,-1.645,4.164,8.725,0.716,0.652,0.101,5.9,1.0,13.6,1.066,-27.7,10.8,-23.8,61.0,-24.9,10.7,5.0,28.23,12.84139,77.66557,,926.7762451,,50.0,,0 / 0,201,2017-10-05 18:57:34:193
-0.945,4.894,8.97,-1.645,4.164,8.725,0.716,0.652,0.101,0.5,-5.9,9.3,1.066,-27.7,10.8,-23.8,61.0,-24.9,10.7,5.0,28.23,12.84139,77.66557,,926.7762451,,50.0,,0 / 0,211,2017-10-05 18:57:34:203
-0.834,4.963,8.734,-1.613,4.196,8.715,0.793,0.687,-0.121,0.5,-5.9,9.3,1.066,-27.7,11.4,-23.8,61.0,-24.9,10.7,5.0,28.23,12.84139,77.66557,,926.7762451,,50.0,,0 / 0,221,2017-10-05 18:57:34:213
-0.834,4.963,8.734,-1.613,4.196,8.715,0.793,0.687,-0.121,0.5,-5.9,9.3,1.066,-27.7,11.4,-23.8,61.0,-24.9,10.7,5.0,28.23,12.84139,77.66557,,926.7762451,,50.0,,0 / 0,231,2017-10-05 18:57:34:223
-0.482,4.837,8.951,-1.589,4.204,8.716,1.115,0.555,0.091,-6.5,-5.0,5.5,0.0,-27.7,11.5,-24.1,60.8,-25.3,10.5,5.0,28.23,12.84139,77.66557,,926.7762451,,50.0,,0 / 0,241,2017-10-05 18:57:34:233
-0.482,4.837,8.951,-1.589,4.204,8.716,1.115,0.555,0.091,-7.8,6.4,2.9,0.0,-27.7,11.5,-24.1,60.8,-25.3,10.5,5.0,28.23,12.84139,77.66557,,926.7762451,,50.0,,0 / 0,251,2017-10-05 18:57:34:243
-0.482,4.837,8.951,-1.589,4.204,8.716,1.115,0.555,0.091,-7.8,6.4,2.9,0.0,-27.7,11.5,-24.1,60.8,-25.3,10.5,5.0,28.23,12.84139,77.66557,,926.7762451,,50.0,,0 / 0,261,2017-10-05 18:57:34:253
-1.245,4.878,11.087,-1.568,4.231,8.707,0.343,0.569,2.202,1.0,17.1,4.6,0.0,-27.5,11.8,-24.2,60.8,-25.3,10.5,5.0,28.23,12.84139,77.66557,,926.7762451,,50.0,,0 / 0,271,2017-10-05 18:57:34:263
-1.245,4.878,11.087,-1.568,4.231,8.707,0.343,0.569,2.202,1.0,17.1,4.6,0.0,-27.5,11.8,-24.2,60.8,-25.3,10.5,5.0,28.23,12.84139,77.66557,,926.7762451,,50.0,,0 / 0,281,2017-10-05 18:57:34:273
-1.341,4.699,11.416,-1.569,4.284,8.681,0.25,0.339,2.552,12.0,12.9,9.0,0.0,-27.5,11.6,-24.1,58.4,-25.6,10.2,5.0,28.23,12.84139,77.66557,,926.7762451,,50.0,,0 / 0,290,2017-10-05 18:57:34:282
-0.736,4.774,10.583,-1.525,4.307,8.677,0.801,0.391,1.736,20.1,1.0,8.7,0.0,-27.4,11.4,-24.1,58.4,-25.6,10.2,5.0,28.23,12.84139,77.66557,,926.7762451,,50.0,,0 / 0,301,2017-10-05 18:57:34:293
-0.736,4.774,10.583,-1.525,4.307,8.677,0.801,0.391,1.736,20.1,1.0,8.7,0.0,-27.4,11.4,-24.1,58.4,-25.6,10.2,5.0,28.23,12.84139,77.66557,,926.7762451,,50.0,,0 / 0,312,2017-10-05 18:57:34:304
-0.736,4.774,10.583,-1.497,4.34,8.666,0.773,0.358,1.748,20.1,1.0,8.7,0.0,-27.4,11.4,-24.1,58.4,-25.6,10.2,5.0,28.23,12.84139,77.66557,,926.7762451,,50.0,,0 / 0,320,2017-10-05 18:57:34:312
-0.117,5.717,8.237,-1.478,4.345,8.666,1.362,1.28,-0.562,11.8,-0.8,4.5,0.0,-26.8,11.6,-23.9,57.9,-26.3,9.7,5.0,28.23,12.84139,77.66557,,926.7762451,,50.0,,0 / 0,332,2017-10-05 18:57:34:324
-0.117,5.717,8.237,-1.478,4.345,8.666,1.362,1.28,-0.562,11.8,-0.8,4.5,0.0,-26.8,11.6,-23.9,57.9,-26.3,9.7,5.0,28.23,12.84139,77.66557,,926.7762451,,50.0,,0 / 0,340,2017-10-05 18:57:34:332
-0.117,5.717,8.237,-1.463,4.347,8.668,1.347,1.278,-0.563,11.8,-0.8,4.5,0.0,-26.8,11.6,-23.9,57.9,-26.3,9.7,5.0,28.23,12.84139,77.66557,,926.7762451,,50.0,,0 / 0,352,2017-10-05 18:57:34:344
-0.117,5.717,8.237,-1.463,4.347,8.668,1.347,1.278,-0.563,11.8,-0.8,4.5,0.0,-26.8,11.6,-23.9,57.9,-26.3,9.7,5.0,28.23,12.84139,77.66557,,926.7762451,,50.0,,0 / 0,361,2017-10-05 18:57:34:353
-0.657,5.504,8.727,-1.453,4.331,8.678,0.807,1.084,-0.091,-4.3,9.0,-1.7,0.0,-26.8,11.3,-23.9,59.1,-26.3,9.6,5.0,28.23,12.84139,77.66557,,926.7762451,,50.0,,0 / 0,371,2017-10-05 18:57:34:363
-1.411,4.684,12.908,-1.41,4.347,8.677,0.021,0.262,4.024,-15.6,1.4,-1.9,0.0,-26.5,11.0,-23.8,59.1,-26.3,9.6,5.0,28.23,12.84139,77.66557,,926.7762451,,50.0,,0 / 0,382,2017-10-05 18:57:34:374
-1.411,4.684,12.908,-1.41,4.347,8.677,0.021,0.262,4.024,-15.6,1.4,-1.9,0.0,-26.5,11.0,-23.8,59.1,-26.3,9.6,5.0,28.23,12.84139,77.66557,,926.7762451,,50.0,,0 / 0,391,2017-10-05 18:57:34:383
-1.411,4.684,12.908,-1.39,4.352,8.678,0.002,0.256,4.024,-15.6,1.4,-1.9,0.0,-26.5,11.0,-23.8,59.1,-26.3,9.6,5.0,28.23,12.84139,77.66557,,926.7762451,,50.0,,0 / 0,401,2017-10-05 18:57:34:393
-1.231,4.121,13.125,-1.353,4.337,8.691,0.142,-0.281,4.223,-6.6,-13.7,-2.8,0.0,-26.2,11.0,-23.5,57.8,-26.3,9.1,5.0,28.23,12.84139,77.66557,,926.7762451,,50.0,,0 / 0,411,2017-10-05 18:57:34:403
-1.231,4.121,13.125,-1.353,4.337,8.691,0.142,-0.281,4.223,-6.6,-13.7,-2.8,0.0,-26.2,11.0,-23.5,57.8,-26.3,9.1,5.0,28.23,12.84139,77.66557,,926.7762451,,50.0,,0 / 0,421,2017-10-05 18:57:34:413
-1.041,3.949,11.685,-1.312,4.33,8.7,0.289,-0.444,2.797,2.9,-20.6,-4.3,0.0,-26.2,11.3,-23.5,57.8,-26.3,9.1,5.0,26.57,12.84139,77.66557,,926.7762451,,50.0,,0 / 0,431,2017-10-05 18:57:34:423
-0.742,3.796,10.064,-1.249,4.279,8.735,0.519,-0.544,1.168,7.0,-15.9,-4.9,0.0,-25.9,11.5,-23.4,57.8,-26.3,9.1,5.0,26.57,12.84139,77.66557,,926.7762451,,50.0,,0 / 0,441,2017-10-05 18:57:34:433
-0.742,3.796,10.064,-1.249,4.279,8.735,0.519,-0.544,1.168,6.6,-6.1,-7.6,0.0,-25.9,11.5,-23.4,57.8,-26.3,9.1,5.0,26.57,12.84139,77.66557,,926.7762451,,50.0,,0 / 0,450,2017-10-05 18:57:34:442
-0.573,3.721,9.109,-1.233,4.247,8.753,0.669,-0.586,0.21,6.6,-6.1,-7.6,0.0,-25.9,11.5,-23.4,56.6,-25.9,8.1,5.0,26.57,12.84139,77.66557,,926.7762451,,50.0,,0 / 0,461,2017-10-05 18:57:34:453
-0.466,3.611,8.974,-1.201,4.208,8.776,0.742,-0.655,0.053,7.8,1.9,-10.8,0.0,-26.1,11.7,-23.3,56.6,-25.9,8.1,5.0,26.57,12.84139,77.66557,,926.7762451,,50.0,,0 / 0,471,2017-10-05 18:57:34:463
-0.466,3.611,8.974,-1.201,4.208,8.776,0.742,-0.655,0.053,7.8,1.9,-10.8,0.0,-26.1,11.7,-23.3,56.6,-25.9,8.1,5.0,26.57,12.84139,77.66557,,926.7762451,,50.0,,0 / 0,481,2017-10-05 18:57:34:473
-0.659,3.574,9.041,-1.214,4.205,8.776,0.565,-0.688,0.119,11.3,9.0,-13.6,0.0,-26.3,11.6,-23.0,56.6,-25.9,8.1,5.0,26.57,12.84139,77.66557,,926.7762451,,50.0,,0 / 0,491,2017-10-05 18:57:34:483
-0.659,3.574,9.041,-1.214,4.205,8.776,0.565,-0.688,0.119,11.3,13.7,-15.0,0.0,-26.3,11.6,-23.0,56.6,-25.9,8.1,5.0,26.57,12.84139,77.66557,,926.7762451,,50.0,,0 / 0,501,2017-10-05 18:57:34:493
-1.165,3.73,9.212,-1.221,4.207,8.774,0.075,-0.536,0.29,16.2,13.7,-15.0,0.0,-26.3,11.6,-23.2,56.6,-25.4,7.9,5.0,26.57,12.84139,77.66557,,926.7762451,,50.0,,0 / 0,511,2017-10-05 18:57:34:503
-1.165,3.73,9.212,-1.221,4.207,8.774,0.075,-0.536,0.29,16.2,13.7,-15.0,0.0,-26.3,11.6,-23.2,56.6,-25.4,7.9,5.0,26.57,12.84139,77.66557,,926.7762451,,50.0,,0 / 0,521,2017-10-05 18:57:34:513
-1.838,3.968,9.208,-1.262,4.239,8.753,-0.546,-0.334,0.307,22.5,14.5,-11.8,0.0,-26.2,11.7,-23.0,56.6,-25.4,7.9,5.0,26.57,12.84139,77.66557,,926.7762451,,50.0,,0 / 0,531,2017-10-05 18:57:34:523
-1.838,3.968,9.208,-1.262,4.239,8.753,-0.546,-0.334,0.307,27.1,8.6,-7.9,0.0,-26.2,11.7,-23.0,56.6,-25.4,7.9,5.0,26.57,12.84139,77.66557,,926.7762451,,50.0,,0 / 0,541,2017-10-05 18:57:34:533
-1.411,3.694,8.908,-1.274,4.274,8.734,-0.115,-0.639,0.031,27.1,8.6,-7.9,0.0,-26.2,11.8,-23.0,56.7,-25.6,8.2,5.0,26.57,12.84139,77.66557,,926.7762451,,50.0,,0 / 0,551,2017-10-05 18:57:34:543
-0.61,3.498,8.124,-1.309,4.321,8.706,0.709,-0.879,-0.712,24.8,-0.5,-8.0,0.0,-26.3,11.6,-23.2,56.7,-25.6,8.2,5.0,26.57,12.84139,77.66557,,926.7762451,,50.0,,0 / 0,562,2017-10-05 18:57:34:554
-0.61,3.498,8.124,-1.309,4.321,8.706,0.709,-0.879,-0.712,13.8,-4.9,-9.9,0.0,-26.3,11.6,-23.2,56.7,-25.6,8.2,5.0,26.57,12.84139,77.66557,,926.7762451,,50.0,,0 / 0,571,2017-10-05 18:57:34:563
0.35,3.52,8.279,-1.309,4.321,8.704,1.672,-0.856,-0.558,13.8,-4.9,-9.9,0.0,-26.3,11.1,-23.1,58.0,-26.1,8.6,5.0,26.57,12.84139,77.66557,,926.7762451,,50.0,,0 / 0,581,2017-10-05 18:57:34:573
0.35,3.52,8.279,-1.327,4.319,8.704,1.672,-0.856,-0.558,-0.4,-6.5,-13.9,0.0,-26.3,11.1,-23.1,58.0,-26.1,8.6,5.0,26.57,12.84139,77.66557,,926.7762451,,50.0,,0 / 0,591,2017-10-05 18:57:34:583
-0.152,3.845,9.445,-1.312,4.32,8.705,1.162,-0.537,0.588,-0.4,-6.5,-13.9,0.0,-26.6,10.7,-23.3,58.0,-26.1,8.6,5.0,26.57,12.84139,77.66557,,926.7762451,,50.0,,0 / 0,601,2017-10-05 18:57:34:593
-0.152,3.845,9.445,-1.312,4.32,8.705,1.162,-0.537,0.588,-7.7,-7.6,-16.1,0.0,-26.6,10.7,-23.3,58.0,-26.1,8.6,5.0,26.57,12.84139,77.66557,,926.7762451,,50.0,,0 / 0,611,2017-10-05 18:57:34:603
-0.152,3.845,9.445,-1.312,4.32,8.705,1.162,-0.537,0.588,-7.7,-7.6,-16.1,0.0,-26.6,10.7,-23.3,58.0,-26.1,8.6,5.0,26.57,12.84139,77.66557,,926.7762451,,50.0,,0 / 0,621,2017-10-05 18:57:34:613
-0.507,3.633,10.365,-1.277,4.28,8.73,0.779,-0.705,1.468,-7.7,-5.6,-15.5,0.0,-26.7,10.6,-23.5,59.0,-26.1,8.6,5.0,26.57,12.84139,77.66557,,926.7762451,,50.0,,0 / 0,631,2017-10-05 18:57:34:623
-0.507,3.334,10.814,-1.277,4.28,8.73,0.622,-0.965,1.889,-1.5,-0.3,-12.9,0.0,-26.5,10.3,-23.8,59.0,-26.1,8.6,5.0,26.57,12.84139,77.66557,,926.7762451,,50.0,,0 / 0,641,2017-10-05 18:57:34:633
-0.629,3.334,10.814,-1.241,4.246,8.752,0.622,-0.965,1.889,-1.5,-0.3,-12.9,0.0,-26.5,10.3,-23.8,59.0,-26.1,8.6,5.0,26.57,12.84139,77.66557,,926.7762451,,50.0,,0 / 0,651,2017-10-05 18:57:34:643
-0.629,3.334,10.814,-1.241,4.246,8.752,0.622,-0.965,1.889,6.3,2.0,-9.9,0.0,-26.7,10.0,-23.8,59.6,-25.7,8.1,5.0,26.57,12.84139,77.66557,,926.7762451,,50.0,,0 / 0,661,2017-10-05 18:57:34:653
-0.518,3.067,10.642,-1.212,4.222,8.768,0.702,-1.205,1.703,6.3,2.0,-9.9,0.0,-26.7,10.0,-23.8,59.6,-25.7,8.1,5.0,26.57,12.84139,77.66557,,926.7762451,,50.0,,0 / 0,672,2017-10-05 18:57:34:664
-0.518,3.067,10.642,-1.212,4.222,8.768,0.702,-1.205,1.703,8.1,-0.1,-5.9,0.0,-26.7,10.0,-23.8,59.6,-25.7,8.1,5.0,26.57,12.84139,77.66557,,926.7762451,,50.0,,0 / 0,681,2017-10-05 18:57:34:673
-0.665,3.153,9.063,-1.18,4.176,8.794,0.526,-1.074,0.124,4.8,-3.3,-1.7,0.0,-26.8,9.5,-23.8,59.6,-25.7,8.1,5.0,26.57,12.84139,77.66557,,926.7762451,,50.0,,0 / 0,691,2017-10-05 18:57:34:683
-0.665,3.153,9.063,-1.18,4.176,8.794,0.526,-1.074,0.124,4.8,-3.3,-1.7,0.0,-26.8,9.5,-23.8,59.6,-25.7,8.1,5.0,26.57,12.84139,77.66557,,926.7762451,,50.0,,0 / 0,702,2017-10-05 18:57:34:694
-0.948,3.465,8.481,-1.138,4.113,8.829,0.205,-0.704,-0.485,4.8,-3.3,-1.7,0.0,-26.8,9.5,-23.8,59.6,-25.7,8.1,5.0,26.57,12.84139,77.66557,,926.7762451,,50.0,,0 / 0,711,2017-10-05 18:57:34:703
-0.948,3.465,8.481,-1.138,4.113,8.829,0.205,-0.704,-0.485,-1.5,-3.2,3.3,0.0,-26.9,9.3,-23.8,60.8,-24.8,7.3,5.0,26.57,12.84139,77.66557,,926.7762451,,50.0,,0 / 0,721,2017-10-05 18:57:34:713
-0.801,3.526,8.618,-1.112,4.055,8.86,0.323,-0.585,-0.38,-7.2,2.9,8.4,0.0,-27.2,9.2,-23.9,60.8,-24.8,7.3,5.0,26.57,12.84139,77.66557,,926.7762451,,50.0,,0 / 0,731,2017-10-05 18:57:34:723
-0.801,3.526,8.618,-1.112,4.055,8.86,0.323,-0.585,-0.38,-10.1,6.7,10.8,0.0,-27.2,9.2,-23.9,60.8,-24.8,7.3,5.0,26.57,12.84139,77.66557,,926.7762451,,50.0,,0 / 0,741,2017-10-05 18:57:34:733
-0.517,3.581,8.76,-1.09,4.001,8.887,0.582,-0.478,-0.268,-10.1,6.7,10.8,0.0,-27.2,9.2,-24.2,60.8,-24.8,7.3,5.0,26.57,12.84139,77.66557,,926.7762451,,50.0,,0 / 0,752,2017-10-05 18:57:34:744
-0.517,3.581,8.76,-1.09,4.001,8.887,0.582,-0.478,-0.268,-11.3,9.2,12.0,0.0,-27.2,9.2,-24.2,60.8,-24.8,7.3,5.0,30.52,12.84139,77.66557,,926.7762451,,50.0,,0 / 0,761,2017-10-05 18:57:34:753
-0.616,3.735,9.049,-1.098,3.955,8.906,0.492,-0.28,-0.003,-10.9,8.8,13.1,0.0,-27.2,9.2,-24.0,60.8,-24.1,7.0,5.0,30.52,12.84139,77.66557,,926.7762451,,50.0,,0 / 0,771,2017-10-05 18:57:34:763
-0.749,3.802,9.184,-1.091,3.939,8.914,0.354,-0.198,0.122,-10.9,8.8,13.1,0.0,-27.2,9.2,-24.0,60.8,-24.1,7.0,5.0,30.52,12.84139,77.66557,,926.7762451,,50.0,,0 / 0,781,2017-10-05 18:57:34:773
-0.749,3.802,9.184,-1.091,3.939,8.914,0.354,-0.198,0.122,-10.9,8.8,15.2,0.0,-27.2,9.2,-24.0,60.8,-24.1,7.0,5.0,30.52,12.84139,77.66557,,926.7762451,,50.0,,0 / 0,791,2017-10-05 18:57:34:783
-1.109,3.909,9.039,-1.088,3.896,8.934,-0.003,-0.05,-0.039,-11.8,8.7,15.2,0.0,-27.2,9.1,-23.7,60.8,-24.1,7.0,5.0,30.52,12.84139,77.66557,,926.7762451,,50.0,,0 / 0,800,2017-10-05 18:57:34:792
-1.306,4.144,8.921,-1.086,3.873,8.944,-0.199,0.205,-0.166,-14.2,12.2,20.6,0.0,-27.4,9.1,-23.3,61.5,-23.4,6.9,5.0,30.52,12.84139,77.66557,,926.7762451,,50.0,,0 / 0,811,2017-10-05 18:57:34:803
-1.306,4.144,8.921,-1.086,3.873,8.944,-0.199,0.205,-0.166,5.2,13.4,25.1,0.0,-27.4,9.1,-23.3,61.5,-23.4,6.9,5.0,30.52,12.84139,77.66557,,926.7762451,,50.0,,0 / 0,821,2017-10-05 18:57:34:813
-0.62,4.203,11.428,-1.076,3.857,8.952,0.467,0.278,2.292,5.2,13.4,25.1,0.0,-27.2,9.0,-23.2,61.5,-23.4,6.9,5.0,30.52,12.84139,77.66557,,926.7762451,,50.0,,0 / 0,831,2017-10-05 18:57:34:823
-0.62,4.203,11.428,-1.076,3.857,8.952,0.467,0.278,2.292,4.8,30.7,27.4,0.0,-27.2,9.0,-23.2,61.5,-23.4,6.9,5.0,30.52,12.84139,77.66557,,926.7762451,,50.0,,0 / 0,841,2017-10-05 18:57:34:833
-0.555,4.065,8.983,-1.111,3.854,8.949,0.565,0.146,-0.11,4.8,30.7,27.4,0.0,-27.2,9.2,-23.5,61.1,-23.2,6.9,5.0,30.52,12.84139,77.66557,,926.7762451,,50.0,,0 / 0,851,2017-10-05 18:57:34:843
-0.555,4.065,8.983,-1.111,3.854,8.949,0.565,0.146,-0.11,0.8,21.7,23.9,0.0,-27.2,9.2,-23.5,61.1,-23.2,6.9,5.0,30.52,12.84139,77.66557,,926.7762451,,50.0,,0 / 0,861,2017-10-05 18:57:34:853
-1.427,4.834,10.044,-1.118,3.86,8.946,-0.286,0.897,0.937,0.8,21.7,23.9,0.0,-26.9,9.5,-23.3,61.1,-23.2,6.9,5.0,30.52,12.84139,77.66557,,926.7762451,,50.0,,0 / 0,871,2017-10-05 18:57:34:863
-1.427,4.834,10.044,-1.118,3.86,8.946,-0.286,0.897,0.937,-8.7,4.3,24.7,0.0,-26.9,9.5,-23.3,61.1,-23.2,6.9,5.0,30.52,12.84139,77.66557,,926.7762451,,50.0,,0 / 0,881,2017-10-05 18:57:34:873
-1.783,5.182,9.813,-1.069,3.814,8.971,-0.686,1.285,0.685,-8.7,4.3,24.7,0.0,-26.7,9.8,-23.2,60.4,-23.2,7.1,5.0,30.52,12.84139,77.66557,,926.7762451,,50.0,,0 / 0,892,2017-10-05 18:57:34:884
-1.783,5.182,9.813,-1.069,3.814,8.971,-0.686,1.285,0.685,-14.0,-10.3,25.2,0.0,-26.7,9.8,-23.2,60.4,-23.2,7.1,5.0,30.52,12.84139,77.66557,,926.7762451,,50.0,,0 / 0,901,2017-10-05 18:57:34:893
-1.127,4.31,10.464,-1.032,3.815,8.975,-0.077,0.426,1.321,-14.8,-15.0,25.1,0.0,-26.7,10.1,-23.1,60.4,-23.2,7.1,5.0,30.52,12.84139,77.66557,,926.7762451,,50.0,,0 / 0,911,2017-10-05 18:57:34:903
-1.127,4.31,10.464,-1.032,3.815,8.975,-0.077,0.426,1.321,-14.6,-8.7,27.0,0.0,-26.7,10.1,-23.1,60.4,-23.2,7.1,5.0,30.52,12.84139,77.66557,,926.7762451,,50.0,,0 / 0,921,2017-10-05 18:57:34:913
-0.938,4.081,9.996,-1.006,3.817,8.977,0.083,0.198,0.859,-14.6,-8.7,27.0,0.0,-26.5,10.4,-23.3,60.0,-22.9,6.4,5.0,30.52,12.84139,77.66557,,926.7762451,,50.0,,0 / 0,932,2017-10-05 18:57:34:924
-0.938,4.081,9.996,-1.006,3.817,8.977,0.083,0.198,0.859,-14.6,-8.7,27.0,0.0,-26.5,10.4,-23.3,60.0,-22.9,6.4,5.0,30.52,12.84139,77.66557,,926.7762451,,50.0,,0 / 0,941,2017-10-05 18:57:34:933
-0.832,3.754,10.491,-0.974,3.819,8.98,0.155,-0.125,1.343,-13.8,-3.1,26.7,0.0,-26.3,10.7,-23.6,60.0,-22.9,6.4,5.0,30.52,12.84139,77.66557,,926.7762451,,50.0,,0 / 0,951,2017-10-05 18:57:34:943
-0.832,3.754,10.491,-0.974,3.819,8.98,0.155,-0.125,1.343,-13.8,-3.1,26.7,0.0,-26.3,10.7,-23.6,60.0,-22.9,6.4,5.0,30.52,12.84139,77.66557,,926.7762451,,50.0,,0 / 0,961,2017-10-05 18:57:34:953
-1.222,3.751,10.794,-0.937,3.799,8.992,-0.265,-0.109,1.628,-12.2,-0.5,25.8,0.0,-26.3,10.7,-23.6,57.1,-22.8,6.0,5.0,30.52,12.84139,77.66557,,926.7762451,,50.0,,0 / 0,973,2017-10-05 18:57:34:965
-1.65,3.937,10.75,-0.894,3.765,9.011,-0.73,0.109,1.566,-10.5,-3.4,27.1,0.0,-26.1,11.0,-23.8,57.1,-22.8,6.0,5.0,30.52,12.84139,77.66557,,926.7762451,,50.0,,0 / 0,981,2017-10-05 18:57:34:973
-1.65,3.937,10.75,-0.894,3.765,9.011,-0.73,0.109,1.566,-10.5,-3.4,27.1,0.0,-26.1,11.0,-23.8,57.1,-22.8,6.0,5.0,30.52,12.84139,77.66557,,926.7762451,,50.0,,0 / 0,991,2017-10-05 18:57:34:983
-1.493,3.863,10.27,-0.835,3.714,9.038,-0.634,0.087,1.068,-7.5,-5.4,29.0,0.0,-26.0,11.8,-24.1,57.1,-22.8,6.0,5.0,30.52,12.84139,77.66557,,926.7762451,,50.0,,0 / 0,1001,2017-10-05 18:57:34:993
-1.215,3.943,9.898,-0.806,3.703,9.045,-0.389,0.177,0.694,-1.5,-3.6,28.2,0.0,-25.7,12.2,-24.1,55.6,-22.3,5.3,5.0,30.52,12.84139,77.66557,,926.7762451,,50.0,,0 / 0,1011,2017-10-05 18:57:35:003
-1.215,3.943,9.898,-0.806,3.703,9.045,-0.389,0.177,0.694,-1.5,-3.6,28.2,0.0,-25.7,12.2,-24.1,55.6,-22.3,5.3,5.0,30.52,12.84139,77.66557,,926.7762451,,50.0,,0 / 0,1021,2017-10-05 18:57:35:013
-1.006,3.998,9.691,-0.79,3.685,9.054,-0.2,0.249,0.482,6.0,-2.8,22.0,0.0,-25.9,12.6,-24.4,55.6,-22.3,5.3,5.0,30.52,12.84139,77.66557,,926.7762451,,50.0,,0 / 0,1031,2017-10-05 18:57:35:023
-1.006,3.998,9.691,-0.784,3.689,9.053,-0.206,0.245,0.483,6.0,-2.8,22.0,0.0,-25.9,12.6,-24.4,55.6,-22.3,5.3,5.0,30.52,12.84139,77.66557,,926.7762451,,50.0,,0 / 0,1041,2017-10-05 18:57:35:033
-1.006,3.998,9.691,-0.784,3.689,9.053,-0.206,0.245,0.483,12.1,-2.2,14.6,0.0,-25.9,12.6,-24.4,55.6,-22.3,5.3,5.0,30.52,12.84139,77.66557,,926.7762451,,50.0,,0 / 0,1051,2017-10-05 18:57:35:043
-1.239,4.784,8.72,-0.768,3.723,9.04,-0.451,0.984,-0.46,12.1,-2.2,14.6,0.0,-25.8,12.9,-24.6,53.8,-22.1,5.0,5.0,30.52,12.84139,77.66557,,926.7762451,,50.0,,0 / 0,1061,2017-10-05 18:57:35:053
-1.239,4.784,8.72,-0.768,3.723,9.04,-0.451,0.984,-0.46,15.7,-2.1,10.1,0.0,-25.8,12.9,-24.6,53.8,-22.1,5.0,5.0,42.07,12.84139,77.66557,,926.7762451,,50.0,,0 / 0,1071,2017-10-05 18:57:35:063
-0.866,4.686,8.172,-0.755,3.76,9.025,-0.097,0.85,-0.984,15.5,-0.3,5.5,0.0,-25.8,13.1,-24.5,53.8,-22.1,5.0,5.0,42.07,12.84139,77.66557,,926.7762451,,50.0,,0 / 0,1081,2017-10-05 18:57:35:073
-0.866,4.686,8.172,-0.755,3.76,9.025,-0.097,0.85,-0.984,8.9,3.6,1.5,1.066,-25.8,13.1,-24.5,53.8,-22.1,5.0,5.0,42.07,12.84139,77.66557,,926.7762451,,50.0,,0 / 0,1092,2017-10-05 18:57:35:084
-0.935,4.794,7.8,-0.762,3.802,9.008,-0.158,0.915,-1.332,8.9,3.6,1.5,1.066,-25.7,13.3,-24.4,53.8,-22.8,4.8,5.0,42.07,12.84139,77.66557,,926.7762451,,50.0,,0 / 0,1101,2017-10-05 18:57:35:093
-0.935,4.794,7.8,-0.762,3.802,9.008,-0.158,0.915,-1.332,-1.0,10.1,-1.6,1.066,-25.7,13.3,-24.4,53.8,-22.8,4.8,5.0,42.07,12.84139,77.66557,,926.7762451,,50.0,,0 / 0,1111,2017-10-05 18:57:35:103
-0.935,4.794,7.8,-0.762,3.802,9.008,-0.158,0.915,-1.332,-1.0,10.1,-1.6,1.066,-25.7,13.3,-24.4,53.8,-22.8,4.8,5.0,42.07,12.84139,77.66557,,926.7762451,,50.0,,0 / 0,1121,2017-10-05 18:57:35:113
-0.935,4.794,7.8,-0.762,3.802,9.008,-0.158,0.915,-1.332,-1.0,10.1,-1.6,1.066,-25.7,13.3,-24.4,53.8,-22.8,4.8,5.0,42.07,12.84139,77.66557,,926.7762451,,50.0,,0 / 0,1132,2017-10-05 18:57:35:124
-0.935,4.794,7.8,-0.762,3.802,9.008,-0.158,0.915,-1.332,-1.0,10.1,-1.6,1.066,-25.7,13.3,-24.4,53.8,-22.8,4.8,5.0,42.07,12.84139,77.66557,,926.7762451,,50.0,,0 / 0,1141,2017-10-05 18:57:35:133
-0.935,4.794,7.8,-0.762,3.802,9.008,-0.158,0.915,-1.332,-1.0,10.1,-1.6,1.066,-25.7,13.3,-24.4,53.8,-22.8,4.8,5.0,42.07,12.84139,77.66557,,926.7762451,,50.0,,0 / 0,1151,2017-10-05 18:57:35:143
-0.89,4.623,8.333,-0.797,3.855,8.982,-0.078,0.693,-0.783,-1.0,10.1,-1.6,1.066,-25.6,13.4,-24.2,53.9,-23.1,5.1,5.0,42.07,12.84139,77.66557,,926.7762451,,50.0,,0 / 0,1161,2017-10-05 18:57:35:153
-0.89,4.623,8.333,-0.797,3.855,8.982,-0.078,0.693,-0.783,-4.1,0.1,-0.6,1.066,-25.6,13.4,-24.2,53.9,-23.1,5.1,5.0,42.07,12.84139,77.66557,,926.7762451,,50.0,,0 / 0,1171,2017-10-05 18:57:35:163
-1.405,4.042,10.216,-0.869,3.956,8.931,-0.514,0.022,1.121,-1.3,-12.1,-2.9,1.066,-26.3,13.9,-24.0,53.9,-23.1,5.1,5.0,42.07,12.84139,77.66557,,926.7762451,,50.0,,0 / 0,1181,2017-10-05 18:57:35:173
-1.405,4.042,10.216,-0.869,3.956,8.931,-0.514,0.022,1.121,-1.3,-12.1,-2.9,1.066,-26.3,13.9,-24.0,53.9,-23.1,5.1,5.0,42.07,12.84139,77.66557,,926.7762451,,50.0,,0 / 0,1192,2017-10-05 18:57:35:184
-0.585,3.926,9.829,-0.869,3.956,8.931,0.293,-0.093,0.74,1.1,-18.1,-7.6,1.066,-26.2,13.7,-23.9,52.8,-23.8,5.6,5.0,42.07,12.84139,77.66557,,926.7762451,,50.0,,0 / 0,1201,2017-10-05 18:57:35:193
-0.585,3.926,9.829,-0.869,3.956,8.931,0.293,-0.093,0.74,1.1,-18.1,-7.6,1.066,-26.2,13.7,-23.9,52.8,-23.8,5.6,5.0,42.07,12.84139,77.66557,,926.7762451,,50.0,,0 / 0,1212,2017-10-05 18:57:35:204
-0.798,4.215,9.365,-0.844,3.956,8.934,0.059,0.191,0.281,2.4,-16.4,-11.1,1.066,-25.9,13.9,-23.5,52.8,-23.8,5.6,5.0,42.07,12.84139,77.66557,,926.7762451,,50.0,,0 / 0,1221,2017-10-05 18:57:35:213
-0.798,4.215,9.365,-0.844,3.956,8.934,0.059,0.191,0.281,2.0,-13.5,-10.4,1.066,-25.9,13.9,-23.5,52.8,-23.8,5.6,5.0,42.07,12.84139,77.66557,,926.7762451,,50.0,,0 / 0,1231,2017-10-05 18:57:35:223
-1.34,4.705,9.501,-0.832,3.937,8.943,-0.486,0.693,0.405,1.5,-18.3,-12.5,1.066,-25.6,13.9,-23.6,52.7,-23.8,5.4,5.0,42.07,12.84139,77.66557,,926.7762451,,50.0,,0 / 0,1241,2017-10-05 18:57:35:233
-1.34,4.705,9.501,-0.832,3.937,8.943,-0.486,0.693,0.405,1.5,-18.3,-12.5,1.066,-25.6,13.9,-23.6,52.7,-23.8,5.4,5.0,42.07,12.84139,77.66557,,926.7762451,,50.0,,0 / 0,1251,2017-10-05 18:57:35:243
-0.672,4.196,9.414,-0.8,3.932,8.948,0.138,0.196,0.314,1.5,-18.3,-12.5,0.0,-25.6,13.9,-23.8,52.7,-23.8,5.4,5.0,42.07,12.84139,77.66557,,926.7762451,,50.0,,0 / 0,1261,2017-10-05 18:57:35:253
-0.672,4.196,9.414,-0.8,3.932,8.948,0.138,0.196,0.314,-0.7,-27.6,-8.7,0.0,-25.6,13.9,-23.8,52.7,-23.8,5.4,5.0,42.07,12.84139,77.66557,,926.7762451,,50.0,,0 / 0,1271,2017-10-05 18:57:35:263
-1.127,4.636,8.969,-0.716,3.935,8.954,-0.393,0.626,-0.129,0.9,-27.7,-0.4,0.0,-25.7,13.7,-23.6,52.5,-23.6,5.1,5.0,42.07,12.84139,77.66557,,926.7762451,,50.0,,0 / 0,1281,2017-10-05 18:57:35:273
-1.127,4.636,8.969,-0.716,3.935,8.954,-0.393,0.626,-0.129,-1.1,-31.3,-2.2,0.0,-25.7,13.7,-23.6,52.5,-23.6,5.1,5.0,42.07,12.84139,77.66557,,926.7762451,,50.0,,0 / 0,1291,2017-10-05 18:57:35:283
-0.675,4.312,8.926,-0.642,3.936,8.959,-0.022,0.306,-0.177,-1.1,-31.3,-2.2,0.0,-25.6,13.4,-23.5,52.5,-23.6,5.1,5.0,42.07,12.84139,77.66557,,926.7762451,,50.0,,0 / 0,1301,2017-10-05 18:57:35:293
-0.675,4.312,8.926,-0.642,3.936,8.959,-0.022,0.306,-0.177,-1.1,-31.3,-2.2,0.0,-25.6,13.4,-23.5,52.5,-23.6,5.1,5.0,42.07,12.84139,77.66557,,926.7762451,,50.0,,0 / 0,1312,2017-10-05 18:57:35:304
-0.675,4.312,8.926,-0.642,3.936,8.959,-0.022,0.306,-0.177,-1.1,-31.3,-2.2,0.0,-25.6,13.4,-23.5,52.5,-23.6,5.1,5.0,42.07,12.84139,77.66557,,926.7762451,,50.0,,0 / 0,1321,2017-10-05 18:57:35:313
-0.737,4.698,8.898,-0.548,3.945,8.961,-0.177,0.678,-0.206,-4.5,-35.9,-2.3,0.0,-25.4,13.4,-23.4,52.5,-23.7,4.1,5.0,42.07,12.84139,77.66557,,926.7762451,,50.0,,0 / 0,1331,2017-10-05 18:57:35:323
-0.737,4.698,8.898,-0.548,3.945,8.961,-0.177,0.678,-0.206,-5.2,-12.6,4.7,0.0,-25.4,13.4,-23.4,52.5,-23.7,4.1,5.0,42.07,12.84139,77.66557,,926.7762451,,50.0,,0 / 0,1341,2017-10-05 18:57:35:333
-0.786,4.713,9.399,-0.448,3.957,8.962,-0.325,0.681,0.287,-5.2,-12.6,4.7,0.0,-25.7,13.4,-22.7,52.5,-23.7,4.1,5.0,42.07,12.84139,77.66557,,926.7762451,,50.0,,0 / 0,1351,2017-10-05 18:57:35:343
-0.786,4.713,9.399,-0.448,3.957,8.962,-0.325,0.681,0.287,-5.2,-12.6,4.7,0.0,-25.7,13.4,-22.7,52.5,-23.7,4.1,5.0,42.07,12.84139,77.66557,,926.7762451,,50.0,,0 / 0,1361,2017-10-05 18:57:35:353
-0.865,4.785,9.948,-0.42,3.969,8.958,-0.43,0.739,0.831,3.6,0.8,12.0,0.0,-26.2,13.4,-22.7,52.6,-23.9,2.7,5.0,31.11,12.84139,77.66557,,926.7762451,,50.0,,0 / 0,1371,2017-10-05 18:57:35:363
-0.313,4.574,9.529,-0.378,3.98,8.955,0.069,0.521,0.421,8.6,-1.8,12.8,0.0,-26.2,13.4,-22.7,52.6,-23.9,2.7,5.0,31.11,12.84139,77.66557,,926.7762451,,50.0,,0 / 0,1381,2017-10-05 18:57:35:373
-0.313,4.574,9.529,-0.378,3.98,8.955,0.069,0.521,0.421,8.6,-1.8,12.8,0.0,-26.2,13.4,-22.7,52.6,-23.9,2.7,5.0,31.11,12.84139,77.66557,,926.7762451,,50.0,,0 / 0,1391,2017-10-05 18:57:35:383
-0.084,4.546,9.249,-0.361,4.039,8.929,0.278,0.434,0.171,8.7,-8.0,9.2,0.0,-26.5,13.3,-22.4,52.6,-23.9,2.7,5.0,31.11,12.84139,77.66557,,926.7762451,,50.0,,0 / 0,1401,2017-10-05 18:57:35:393
-0.084,4.546,9.249,-0.361,4.039,8.929,0.278,0.434,0.171,9.5,-11.3,5.2,0.0,-26.5,13.3,-22.4,52.6,-23.9,2.7,5.0,31.11,12.84139,77.66557,,926.7762451,,50.0,,0 / 0,1411,2017-10-05 18:57:35:403
-0.048,4.741,9.251,-0.346,4.074,8.914,0.299,0.591,0.189,9.5,-11.3,5.2,0.0,-26.7,13.3,-22.1,53.7,-24.3,2.3,5.0,31.11,12.84139,77.66557,,926.7762451,,50.0,,0 / 0,1421,2017-10-05 18:57:35:413
-0.048,4.741,9.251,-0.346,4.074,8.914,0.299,0.591,0.189,10.8,-7.7,1.3,0.0,-26.7,13.3,-22.1,53.7,-24.3,2.3,5.0,31.11,12.84139,77.66557,,926.7762451,,50.0,,0 / 0,1431,2017-10-05 18:57:35:423
-0.098,4.841,9.006,-0.315,4.119,8.894,0.218,0.645,-0.033,10.8,-7.7,1.3,0.0,-26.9,13.5,-22.3,53.7,-24.3,2.3,5.0,31.11,12.84139,77.66557,,926.7762451,,50.0,,0 / 0,1442,2017-10-05 18:57:35:434
-0.098,4.841,9.006,-0.315,4.119,8.894,0.218,0.645,-0.033,9.2,-2.4,1.7,0.0,-26.9,13.5,-22.3,53.7,-24.3,2.3,5.0,31.11,12.84139,77.66557,,926.7762451,,50.0,,0 / 0,1451,2017-10-05 18:57:35:443
-0.83,5.03,8.737,-0.29,4.161,8.875,-0.526,0.789,-0.279,3.6,4.3,9.2,0.0,-27.0,13.5,-22.1,52.2,-24.8,2.0,5.0,31.11,12.84139,77.66557,,926.7762451,,50.0,,0 / 0,1461,2017-10-05 18:57:35:453
-0.83,5.03,8.737,-0.29,4.161,8.875,-0.526,0.789,-0.279,3.6,4.3,9.2,0.0,-27.0,13.5,-22.1,52.2,-24.8,2.0,5.0,31.11,12.84139,77.66557,,926.7762451,,50.0,,0 / 0,1471,2017-10-05 18:57:35:463
0.648,4.003,9.013,-0.261,4.187,8.864,0.899,-0.248,0.004,-5.7,-3.5,5.2,0.0,-26.9,13.3,-22.0,52.2,-24.8,2.0,5.0,31.11,12.84139,77.66557,,926.7762451,,50.0,,0 / 0,1482,2017-10-05 18:57:35:474
0.648,4.003,9.013,-0.261,4.187,8.864,0.899,-0.248,0.004,-5.7,-3.5,5.2,0.0,-26.9,13.3,-22.0,52.2,-24.8,2.0,5.0,31.11,12.84139,77.66557,,926.7762451,,50.0,,0 / 0,1491,2017-10-05 18:57:35:483
0.64,4.336,9.529,-0.228,4.216,8.851,0.857,0.05,0.524,-10.4,-21.9,-5.7,0.0,-26.6,13.1,-21.9,52.8,-25.5,1.5,5.0,31.11,12.84139,77.66557,,926.7762451,,50.0,,0 / 0,1502,2017-10-05 18:57:35:494
0.64,4.336,9.529,-0.228,4.216,8.851,0.857,0.05,0.524,-10.4,-21.9,-5.7,0.0,-26.6,13.1,-21.9,52.8,-25.5,1.5,5.0,31.11,12.84139,77.66557,,926.7762451,,50.0,,0 / 0,1511,2017-10-05 18:57:35:503
0.504,4.442,9.426,-0.175,4.219,8.851,0.67,0.152,0.423,-9.7,-30.4,-10.5,0.0,-26.5,13.0,-22.1,52.8,-25.5,1.5,5.0,31.11,12.84139,77.66557,,926.7762451,,50.0,,0 / 0,1520,2017-10-05 18:57:35:512
0.504,4.442,9.426,-0.175,4.219,8.851,0.67,0.152,0.423,-8.6,-29.7,-13.4,0.0,-26.5,13.0,-22.1,52.8,-25.5,1.5,5.0,31.11,12.84139,77.66557,,926.7762451,,50.0,,0 / 0,1530,2017-10-05 18:57:35:522
0.803,4.099,9.259,-0.1,4.185,8.868,0.889,-0.152,0.242,-8.6,-29.7,-13.4,0.0,-26.3,13.0,-22.1,51.6,-25.5,1.1,5.0,31.11,12.84139,77.66557,,926.7762451,,50.0,,0 / 0,1540,2017-10-05 18:57:35:532
0.803,4.099,9.259,-0.1,4.185,8.868,0.889,-0.152,0.242,-4.8,-17.8,-18.4,0.0,-26.3,13.0,-22.1,51.6,-25.5,1.1,5.0,31.11,12.84139,77.66557,,926.7762451,,50.0,,0 / 0,1551,2017-10-05 18:57:35:543
0.437,4.225,9.649,-0.018,4.155,8.883,0.447,0.002,0.612,-4.8,-17.8,-18.4,0.0,-26.0,13.0,-21.9,51.6,-25.5,1.1,5.0,31.11,12.84139,77.66557,,926.7762451,,50.0,,0 / 0,1561,2017-10-05 18:57:35:553
0.437,4.225,9.649,-0.018,4.155,8.883,0.447,0.002,0.612,1.3,-8.6,-16.4,0.0,-26.0,13.0,-21.9,51.6,-25.5,1.1,5.0,31.11,12.84139,77.66557,,926.7762451,,50.0,,0 / 0,1571,2017-10-05 18:57:35:563
-0.368,4.864,9.594,0.014,4.159,8.881,-0.376,0.627,0.559,1.3,-8.6,-10.4,0.0,-25.9,13.0,-21.7,51.0,-25.1,0.1,5.0,31.11,12.84139,77.66557,,926.7762451,,50.0,,0 / 0,1581,2017-10-05 18:57:35:573
-0.368,4.864,9.594,0.014,4.159,8.881,-0.376,0.627,0.559,5.9,-4.8,-10.4,0.0,-25.9,13.0,-21.7,51.0,-25.1,0.1,5.0,31.11,12.84139,77.66557,,926.7762451,,50.0,,0 / 0,1591,2017-10-05 18:57:35:583
0.106,4.631,9.185,0.042,4.156,8.882,0.063,0.4,0.156,5.6,-6.6,-7.8,0.0,-25.9,12.9,-21.1,51.0,-25.1,0.1,5.0,31.11,12.84139,77.66557,,926.7762451,,50.0,,0 / 0,1601,2017-10-05 18:57:35:593
0.106,4.631,9.185,0.054,4.16,8.881,0.05,0.397,0.157,5.6,-6.6,-7.8,1.066,-25.9,12.8,-21.1,51.0,-25.1,0.1,5.0,31.11,12.84139,77.66557,,926.7762451,,50.0,,0 / 0,1611,2017-10-05 18:57:35:603
0.106,4.631,9.185,0.054,4.16,8.881,0.05,0.397,0.157,-0.8,-12.9,-3.9,1.066,-25.9,12.8,-21.1,51.0,-25.1,0.1,5.0,31.11,12.84139,77.66557,,926.7762451,,50.0,,0 / 0,1621,2017-10-05 18:57:35:613
-0.281,4.962,8.908,0.088,4.167,8.877,-0.364,0.716,-0.112,-6.4,-18.3,0.5,1.066,-26.3,12.8,-20.9,51.3,-25.1,-0.3,5.0,31.11,12.84139,77.66557,,926.7762451,,50.0,,0 / 0,1632,2017-10-05 18:57:35:624
-0.281,4.962,8.908,0.088,4.167,8.877,-0.364,0.716,-0.112,-6.4,-18.3,0.5,1.066,-26.3,12.8,-20.9,51.3,-25.1,-0.3,5.0,31.11,12.84139,77.66557,,926.7762451,,50.0,,0 / 0,1641,2017-10-05 18:57:35:633
0.496,4.589,9.371,0.117,4.178,8.871,0.371,0.337,0.349,-6.4,-18.3,0.5,1.066,-26.6,13.0,-20.5,51.3,-25.1,-0.3,5.0,31.11,12.84139,77.66557,,926.7762451,,50.0,,0 / 0,1651,2017-10-05 18:57:35:643
0.496,4.589,9.371,0.117,4.178,8.871,0.371,0.337,0.349,-7.1,-18.1,1.6,1.066,-26.6,13.0,-20.5,51.3,-25.1,-0.3,5.0,31.11,12.84139,77.66557,,926.7762451,,50.0,,0 / 0,1661,2017-10-05 18:57:35:653
0.932,4.362,9.5,0.171,4.172,8.873,0.746,0.12,0.474,-4.5,-14.1,-2.6,1.066,-26.6,12.9,-20.0,52.6,-25.2,-0.8,5.0,31.11,12.84139,77.66557,,926.7762451,,50.0,,0 / 0,1670,2017-10-05 18:57:35:662
0.932,4.362,9.5,0.171,4.172,8.873,0.746,0.12,0.474,-1.3,-8.6,-4.8,1.066,-26.6,12.9,-20.0,52.6,-25.2,-0.8,5.0,39.64,12.84139,77.66557,,926.7762451,,50.0,,0 / 0,1681,2017-10-05 18:57:35:673
0.452,4.68,9.165,0.208,4.178,8.87,0.237,0.427,0.148,-1.3,-8.6,-4.8,1.066,-26.5,12.6,-19.7,52.6,-25.2,-0.8,5.0,39.64,12.84139,77.66557,,926.7762451,,50.0,,0 / 0,1691,2017-10-05 18:57:35:683
0.452,4.68,9.165,0.208,4.178,8.87,0.237,0.427,0.148,2.1,-1.0,-5.2,1.066,-26.5,12.6,-19.7,52.6,-25.2,-0.8,5.0,39.64,12.84139,77.66557,,926.7762451,,50.0,,0 / 0,1700,2017-10-05 18:57:35:692
0.142,4.514,9.294,0.238,4.181,8.867,-0.098,0.26,0.277,2.1,-1.0,-5.2,1.066,-26.8,12.8,-19.6,52.2,-25.2,-1.3,5.0,39.64,12.84139,77.66557,,926.7762451,,50.0,,0 / 0,1711,2017-10-05 18:57:35:703
0.142,4.514,9.294,0.238,4.181,8.867,-0.098,0.26,0.277,5.8,6.0,-5.3,1.066,-26.8,12.8,-19.6,52.2,-25.2,-1.3,5.0,39.64,12.84139,77.66557,,926.7762451,,50.0,,0 / 0,1721,2017-10-05 18:57:35:713
0.267,4.548,9.291,0.239,4.195,8.861,0.023,0.281,0.28,5.8,6.0,-5.3,1.066,-26.9,12.6,-19.0,52.2,-25.2,-1.3,5.0,39.64,12.84139,77.66557,,926.7762451,,50.0,,0 / 0,1731,2017-10-05 18:57:35:723
0.267,4.548,9.291,0.239,4.195,8.861,0.023,0.281,0.28,7.7,7.7,-5.6,1.066,-26.9,12.6,-19.0,52.2,-25.2,-1.3,5.0,39.64,12.84139,77.66557,,926.7762451,,50.0,,0 / 0,1741,2017-10-05 18:57:35:733
0.582,4.562,8.64,0.216,4.215,8.852,0.357,0.273,-0.351,7.7,7.7,-5.6,1.066,-26.8,12.7,-19.0,52.7,-25.5,-1.4,5.0,39.64,12.84139,77.66557,,926.7762451,,50.0,,0 / 0,1751,2017-10-05 18:57:35:743
0.582,4.562,8.64,0.216,4.215,8.852,0.357,0.273,-0.351,5.4,5.5,-8.0,1.066,-26.8,12.7,-19.0,52.7,-25.5,-1.4,5.0,39.64,12.84139,77.66557,,926.7762451,,50.0,,0 / 0,1761,2017-10-05 18:57:35:753
0.355,4.568,8.211,0.192,4.23,8.845,0.158,0.264,-0.767,0.1,1.7,-9.6,1.066,-26.8,12.5,-18.7,52.7,-25.5,-1.4,5.0,39.64,12.84139,77.66557,,926.7762451,,50.0,,0 / 0,1771,2017-10-05 18:57:35:763
0.355,4.568,8.211,0.192,4.23,8.845,0.158,0.264,-0.767,-5.2,2.9,-8.0,0.0,-26.8,12.5,-18.7,52.7,-25.5,-1.4,5.0,39.64,12.84139,77.66557,,926.7762451,,50.0,,0 / 0,1781,2017-10-05 18:57:35:773
0.355,4.568,8.211,0.173,4.228,8.847,-0.132,0.082,-0.772,-5.2,2.9,-8.0,0.0,-26.6,12.4,-18.7,54.1,-25.5,-1.1,5.0,39.64,12.84139,77.66557,,926.7762451,,50.0,,0 / 0,1791,2017-10-05 18:57:35:783
0.042,4.38,8.207,0.173,4.228,8.847,-0.132,0.082,-0.772,-9.7,6.7,1.9,0.0,-26.6,12.4,-18.7,54.1,-25.5,-1.1,5.0,39.64,12.84139,77.66557,,926.7762451,,50.0,,0 / 0,1801,2017-10-05 18:57:35:793
-0.77,5.359,9.064,0.169,4.23,8.846,-0.927,1.043,0.073,-9.7,6.7,1.9,0.0,-26.8,12.2,-19.0,54.1,-25.5,-1.1,5.0,39.64,12.84139,77.66557,,926.7762451,,50.0,,0 / 0,1811,2017-10-05 18:57:35:803
-0.77,5.359,9.064,0.169,4.23,8.846,-0.927,1.043,0.073,-15.3,5.0,7.8,0.0,-26.8,12.2,-19.0,54.1,-25.5,-1.1,5.0,39.64,12.84139,77.66557,,926.7762451,,50.0,,0 / 0,1821,2017-10-05 18:57:35:813
0.228,4.54,9.594,0.164,4.215,8.853,0.061,0.252,0.587,-15.3,5.0,7.8,0.0,-26.9,12.2,-19.0,54.2,-25.5,-1.1,5.0,39.64,12.84139,77.66557,,926.7762451,,50.0,,0 / 0,1831,2017-10-05 18:57:35:823
0.228,4.54,9.594,0.164,4.215,8.853,0.061,0.252,0.587,-16.2,3.2,6.7,0.0,-26.9,12.2,-19.0,54.2,-25.5,-1.1,5.0,39.64,12.84139,77.66557,,926.7762451,,50.0,,0 / 0,1841,2017-10-05 18:57:35:833
0.694,4.12,10.049,0.155,4.187,8.867,0.528,-0.133,1.021,-12.3,3.6,-0.1,0.0,-27.1,12.2,-19.1,54.2,-25.5,-1.1,5.0,39.64,12.84139,77.66557,,926.7762451,,50.0,,0 / 0,1851,2017-10-05 18:57:35:843
0.694,4.12,10.049,0.154,4.162,8.878,0.529,-0.108,1.009,-12.3,3.6,-0.1,0.0,-27.1,12.2,-19.1,54.2,-25.5,-1.1,5.0,39.64,12.84139,77.66557,,926.7762451,,50.0,,0 / 0,1861,2017-10-05 18:57:35:853
0.694,4.12,10.049,0.154,4.162,8.878,0.529,-0.108,1.009,-12.3,3.6,-0.1,0.0,-27.1,12.2,-19.1,54.2,-25.5,-1.1,5.0,39.64,12.84139,77.66557,,926.7762451,,50.0,,0 / 0,1871,2017-10-05 18:57:35:863
0.328,4.596,10.075,0.141,4.149,8.885,0.181,0.374,1.029,-3.7,3.2,-3.5,0.0,-26.9,12.2,-19.1,54.4,-25.1,-1.0,5.0,39.64,12.84139,77.66557,,926.7762451,,50.0,,0 / 0,1881,2017-10-05 18:57:35:873
0.328,4.596,10.075,0.141,4.149,8.885,0.181,0.374,1.029,2.0,-1.0,-6.2,0.0,-26.9,12.2,-19.1,54.4,-25.1,-1.0,5.0,39.64,12.84139,77.66557,,926.7762451,,50.0,,0 / 0,1891,2017-10-05 18:57:35:883
0.862,4.053,9.465,0.16,4.118,8.899,0.688,-0.129,0.414,1.0,-5.0,-9.0,0.0,-26.8,12.1,-19.6,54.4,-25.1,-1.0,5.0,39.64,12.84139,77.66557,,926.7762451,,50.0,,0 / 0,1900,2017-10-05 18:57:35:892
0.862,4.053,9.465,0.16,4.118,8.899,0.688,-0.129,0.414,1.0,-5.0,-9.0,0.0,-26.8,12.1,-19.6,54.4,-25.1,-1.0,5.0,39.64,12.84139,77.66557,,926.7762451,,50.0,,0 / 0,1911,2017-10-05 18:57:35:903
0.35,4.325,9.509,0.172,4.098,8.908,0.173,0.157,0.449,-1.4,-8.6,-10.2,0.0,-26.8,12.1,-19.6,53.8,-24.7,-1.1,5.0,39.64,12.84139,77.66557,,926.7762451,,50.0,,0 / 0,1921,2017-10-05 18:57:35:913
0.35,4.325,9.509,0.172,4.098,8.908,0.173,0.157,0.449,-3.1,-14.8,-5.2,0.0,-26.8,12.1,-19.6,53.8,-24.7,-1.1,5.0,39.64,12.84139,77.66557,,926.7762451,,50.0,,0 / 0,1931,2017-10-05 18:57:35:923
-1.044,5.034,9.459,0.203,4.09,8.911,-1.23,0.863,0.397,-3.1,-14.8,-5.2,0.0,-26.8,12.4,-19.8,53.8,-24.7,-1.1,5.0,39.64,12.84139,77.66557,,926.7762451,,50.0,,0 / 0,1941,2017-10-05 18:57:35:933
-1.044,5.034,9.459,0.203,4.09,8.911,-1.23,0.863,0.397,1.2,-11.8,1.8,0.0,-26.8,12.4,-19.8,53.8,-24.7,-1.1,5.0,39.64,12.84139,77.66557,,926.7762451,,50.0,,0 / 0,1951,2017-10-05 18:57:35:943
-1.377,4.191,10.3,0.251,4.089,8.91,-1.605,0.035,1.225,1.2,-11.8,1.8,0.0,-26.8,12.2,-19.8,53.7,-24.7,-1.3,5.0,39.64,12.84139,77.66557,,926.7762451,,50.0,,0 / 0,1962,2017-10-05 18:57:35:954
-1.377,4.191,10.3,0.251,4.089,8.91,-1.605,0.035,1.225,1.2,-11.8,1.8,0.0,-26.8,12.2,-19.8,53.7,-24.7,-1.3,5.0,39.64,12.84139,77.66557,,926.7762451,,50.0,,0 / 0,1971,2017-10-05 18:57:35:963
1.014,3.867,10.345,0.26,4.114,8.898,0.738,-0.31,1.281,14.3,0.9,3.8,0.0,-26.6,12.2,-19.6,53.7,-24.7,-1.3,5.0,27.22,12.84139,77.66557,,926.7762451,,50.0,,0 / 0,1981,2017-10-05 18:57:35:973
1.014,3.867,10.345,0.26,4.114,8.898,0.738,-0.31,1.281,31.0,33.2,-2.2,0.0,-26.6,12.2,-19.6,53.7,-24.7,-1.3,5.0,27.22,12.84139,77.66557,,926.7762451,,50.0,,0 / 0,1991,2017-10-05 18:57:35:983
1.927,3.966,9.936,0.1,4.238,8.843,1.796,-0.336,0.934,31.0,33.2,-6.4,0.0,-26.7,12.1,-19.6,53.4,-24.8,-1.7,5.0,27.22,12.84139,77.66557,,926.7762451,,50.0,,0 / 0,2001,2017-10-05 18:57:35:993
1.927,3.966,9.936,0.1,4.238,8.843,1.796,-0.336,0.934,34.1,46.7,-6.4,0.0,-26.7,12.1,-19.6,53.4,-24.8,-1.7,5.0,27.22,12.84139,77.66557,,926.7762451,,50.0,,0 / 0,2011,2017-10-05 18:57:36:003
-0.371,5.103,8.139,0.045,4.264,8.831,-0.41,0.758,-0.823,22.2,38.3,-4.5,0.0,-26.7,12.2,-19.6,53.4,-24.8,-1.7,5.0,27.22,12.84139,77.66557,,926.7762451,,50.0,,0 / 0,2021,2017-10-05 18:57:36:013
-0.371,5.103,8.139,0.045,4.264,8.831,-0.41,0.758,-0.823,3.8,20.8,-0.5,0.0,-26.7,12.2,-19.6,53.4,-24.8,-1.7,5.0,27.22,12.84139,77.66557,,926.7762451,,50.0,,0 / 0,2031,2017-10-05 18:57:36:023
-0.547,5.247,8.132,0.003,4.286,8.821,-0.54,0.877,-0.82,3.8,20.8,-0.5,0.0,-26.8,11.9,-19.7,54.1,-25.9,0.0,5.0,27.22,12.84139,77.66557,,926.7762451,,50.0,,0 / 0,2041,2017-10-05 18:57:36:033
-0.547,5.247,8.132,0.003,4.286,8.821,-0.54,0.877,-0.82,3.8,20.8,-0.5,0.0,-26.8,11.9,-19.7,54.1,-25.9,0.0,5.0,27.22,12.84139,77.66557,,926.7762451,,50.0,,0 / 0,2051,2017-10-05 18:57:36:043
-0.678,5.029,9.086,0.055,4.249,8.838,-0.723,0.699,0.102,-9.6,5.5,4.0,0.0,-26.9,12.1,-19.6,54.1,-25.9,0.0,5.0,27.22,12.84139,77.66557,,926.7762451,,50.0,,0 / 0,2061,2017-10-05 18:57:36:053
-0.678,5.029,9.086,0.055,4.249,8.838,-0.723,0.699,0.102,-9.6,5.5,4.0,0.0,-26.9,12.1,-19.6,54.1,-25.9,0.0,5.0,27.22,12.84139,77.66557,,926.7762451,,50.0,,0 / 0,2071,2017-10-05 18:57:36:063
-0.504,4.834,10.11,-0.018,4.313,8.807,-0.477,0.444,1.14,-9.4,1.3,2.3,0.0,-27.1,11.8,-19.6,54.0,-25.7,-0.4,5.0,27.22,12.84139,77.66557,,926.7762451,,50.0,,0 / 0,2081,2017-10-05 18:57:36:073
-0.504,4.834,10.11,-0.018,4.313,8.807,-0.477,0.444,1.14,4.3,18.0,-2.6,0.0,-27.1,11.8,-19.6,54.0,-25.7,-0.4,5.0,27.22,12.84139,77.66557,,926.7762451,,50.0,,0 / 0,2091,2017-10-05 18:57:36:083
-0.744,5.241,10.326,-0.073,4.337,8.795,-0.659,0.82,1.365,4.3,18.0,-2.6,0.0,-27.2,11.5,-19.4,54.0,-25.7,-0.4,5.0,27.22,12.84139,77.66557,,926.7762451,,50.0,,0 / 0,2101,2017-10-05 18:57:36:093
-0.744,5.241,10.326,-0.073,4.337,8.795,-0.659,0.82,1.365,26.8,48.3,-10.0,0.0,-27.2,11.5,-19.4,54.0,-25.7,-0.4,5.0,27.22,12.84139,77.66557,,926.7762451,,50.0,,0 / 0,2111,2017-10-05 18:57:36:103
-1.772,6.382,8.803,-0.316,4.458,8.729,-1.428,1.821,-0.068,39.7,86.2,-7.9,0.0,-27.1,11.8,-19.4,55.7,-27.0,2.1,5.0,27.22,12.84139,77.66557,,926.7762451,,50.0,,0 / 0,2121,2017-10-05 18:57:36:113
-1.772,6.382,8.803,-0.316,4.458,8.729,-1.428,1.821,-0.068,39.7,86.2,-7.9,0.0,-27.1,11.8,-19.4,55.7,-27.0,2.1,5.0,27.22,12.84139,77.66557,,926.7762451,,50.0,,0 / 0,2130,2017-10-05 18:57:36:122
-0.727,6.042,8.165,-0.532,4.527,8.683,-0.183,1.418,-0.649,37.9,109.7,2.9,0.0,-27.0,11.6,-19.6,55.7,-27.0,2.1,5.0,27.22,12.84139,77.66557,,926.7762451,,50.0,,0 / 0,2141,2017-10-05 18:57:36:133
-0.727,6.042,8.165,-0.532,4.527,8.683,-0.183,1.418,-0.649,37.9,109.7,2.9,0.0,-27.0,11.6,-19.6,55.7,-27.0,2.1,5.0,27.22,12.84139,77.66557,,926.7762451,,50.0,,0 / 0,2151,2017-10-05 18:57:36:143
-0.919,5.356,7.169,-0.86,4.66,8.585,-0.044,0.609,-1.532,24.0,106.1,7.7,0.0,-26.7,11.6,-20.1,55.9,-27.5,3.5,5.0,27.22,12.84139,77.66557,,926.7762451,,50.0,,0 / 0,2161,2017-10-05 18:57:36:153
-0.919,5.356,7.169,-0.86,4.66,8.585,-0.044,0.609,-1.532,24.0,106.1,7.7,0.0,-26.7,11.6,-20.1,55.9,-27.5,3.5,5.0,27.22,12.84139,77.66557,,926.7762451,,50.0,,0 / 0,2171,2017-10-05 18:57:36:163
-2.077,3.378,7.18,-1.154,4.731,8.512,-0.89,-1.407,-1.448,-26.0,75.3,34.1,0.0,-26.5,11.5,-20.4,55.9,-27.5,3.5,5.0,27.22,12.84139,77.66557,,926.7762451,,50.0,,0 / 0,2181,2017-10-05 18:57:36:173
-2.077,3.378,7.18,-1.154,4.731,8.512,-0.89,-1.407,-1.448,-26.0,75.3,34.1,0.0,-26.5,11.5,-20.4,55.9,-27.5,3.5,5.0,27.22,12.84139,77.66557,,926.7762451,,50.0,,0 / 0,2191,2017-10-05 18:57:36:183
-0.199,3.18,7.113,-1.367,4.778,8.454,1.171,-1.649,-1.456,-43.9,29.2,18.0,0.0,-26.3,11.4,-21.1,58.6,-29.2,9.2,5.0,27.22,12.84139,77.66557,,926.7762451,,50.0,,0 / 0,2201,2017-10-05 18:57:36:193
-0.199,3.18,7.113,-1.367,4.778,8.454,1.171,-1.649,-1.456,-43.9,29.2,18.0,0.0,-26.3,11.4,-21.1,58.6,-29.2,9.2,5.0,27.22,12.84139,77.66557,,926.7762451,,50.0,,0 / 0,2210,2017-10-05 18:57:36:202
-0.02,3.539,9.244,-1.481,4.728,8.463,1.461,-1.245,0.632,-43.9,29.2,18.0,0.0,-26.1,11.3,-22.0,58.6,-29.2,9.2,5.0,27.22,12.84139,77.66557,,926.7762451,,50.0,,0 / 0,2221,2017-10-05 18:57:36:213
-0.02,3.539,9.244,-1.481,4.728,8.463,1.461,-1.245,0.632,-43.9,-13.9,-7.1,0.0,-26.1,11.3,-22.0,58.6,-29.2,9.2,5.0,27.22,12.84139,77.66557,,926.7762451,,50.0,,0 / 0,2231,2017-10-05 18:57:36:223
-0.956,3.586,9.658,-1.456,4.592,8.542,0.516,-1.063,0.961,-43.9,-13.9,-7.1,0.0,-25.9,11.5,-22.9,56.9,-28.8,9.9,5.0,27.22,12.84139,77.66557,,926.7762451,,50.0,,0 / 0,2241,2017-10-05 18:57:36:233
-0.956,3.586,9.658,-1.456,4.592,8.542,0.516,-1.063,0.961,-24.4,-30.2,-23.4,0.0,-25.9,11.5,-22.9,56.9,-28.8,9.9,5.0,27.22,12.84139,77.66557,,926.7762451,,50.0,,0 / 0,2251,2017-10-05 18:57:36:243
-1.778,3.296,8.992,-1.392,4.487,8.608,-0.358,-1.243,0.239,-24.4,-30.2,-23.4,0.0,-25.4,11.6,-23.6,56.9,-28.8,9.9,5.0,27.22,12.84139,77.66557,,926.7762451,,50.0,,0 / 0,2262,2017-10-05 18:57:36:254
-1.778,3.296,8.992,-1.392,4.487,8.608,-0.358,-1.243,0.239,5.3,7.3,-14.3,0.0,-25.4,11.6,-23.6,56.9,-28.8,9.9,5.0,27.22,12.84139,77.66557,,926.7762451,,50.0,,0 / 0,2271,2017-10-05 18:57:36:263
-2.632,3.242,6.558,-1.321,4.405,8.662,-1.269,-1.214,-2.209,5.3,7.3,-14.3,0.0,-25.3,11.6,-24.4,55.4,-27.2,9.2,5.0,48.88,12.84139,77.66557,,926.7762451,,50.0,,0 / 0,2281,2017-10-05 18:57:36:273
-2.632,3.242,6.558,-1.321,4.405,8.662,-1.269,-1.214,-2.209,5.3,7.3,-14.3,0.0,-25.3,11.6,-24.4,55.4,-27.2,9.2,5.0,48.88,12.84139,77.66557,,926.7762451,,50.0,,0 / 0,2292,2017-10-05 18:57:36:284
-3.528,3.871,5.352,-1.299,4.327,8.704,-2.173,-0.517,-3.438,-8.5,6.7,1.7,0.0,-25.4,12.1,-25.0,55.4,-27.2,9.2,5.0,48.88,12.84139,77.66557,,926.7762451,,50.0,,0 / 0,2301,2017-10-05 18:57:36:293
-3.528,3.871,5.352,-1.299,4.327,8.704,-2.173,-0.517,-3.438,-32.3,-10.6,25.3,0.0,-25.4,12.1,-25.0,55.4,-27.2,9.2,5.0,48.88,12.84139,77.66557,,926.7762451,,50.0,,0 / 0,2311,2017-10-05 18:57:36:303
-3.528,3.871,5.352,-1.299,4.327,8.704,-2.173,-0.517,-3.438,-32.3,-10.6,25.3,0.0,-25.4,12.1,-25.0,55.4,-27.2,9.2,5.0,48.88,12.84139,77.66557,,926.7762451,,50.0,,0 / 0,2321,2017-10-05 18:57:36:313
-3.528,3.871,5.352,-1.299,4.327,8.704,-2.173,-0.517,-3.438,-32.3,-10.6,25.3,0.0,-25.4,12.1,-25.0,55.4,-27.2,9.2,5.0,48.88,12.84139,77.66557,,926.7762451,,50.0,,0 / 0,2331,2017-10-05 18:57:36:323
-5.395,5.521,7.007,-1.309,4.3,8.716,-4.0,1.132,-1.821,-32.3,-10.6,25.3,0.0,-25.3,12.2,-25.4,54.9,-26.0,8.5,5.0,48.88,12.84139,77.66557,,926.7762451,,50.0,,0 / 0,2341,2017-10-05 18:57:36:333
-4.893,6.006,9.996,-0.912,4.047,8.886,-3.903,1.863,0.949,-84.6,-105.1,94.0,0.0,-25.3,12.9,-25.7,54.9,-26.0,8.5,5.0,48.88,12.84139,77.66557,,926.7762451,,50.0,,0 / 0,2350,2017-10-05 18:57:36:342
0.598,5.314,9.221,-0.912,4.047,8.886,1.254,1.316,0.106,-114.2,-142.6,120.2,0.0,-25.3,12.9,-25.7,54.9,-26.0,8.5,5.0,48.88,12.84139,77.66557,,926.7762451,,50.0,,0 / 0,2361,2017-10-05 18:57:36:353
0.598,5.314,9.221,-0.912,4.047,8.886,1.254,1.316,0.106,-114.2,-142.6,120.2,0.0,-25.3,12.9,-25.7,54.9,-26.0,8.5,5.0,48.88,12.84139,77.66557,,926.7762451,,50.0,,0 / 0,2371,2017-10-05 18:57:36:363
13.699,6.735,8.034,-0.658,3.845,8.998,14.137,2.782,-1.093,-114.2,-142.6,120.2,0.0,-25.3,13.1,-25.4,51.8,-23.1,4.2,5.0,48.88,12.84139,77.66557,,926.7762451,,50.0,,0 / 0,2381,2017-10-05 18:57:36:373
2.593,2.399,8.948,-0.373,3.526,9.143,2.924,-1.165,-0.338,-134.5,-140.3,72.8,0.0,-25.4,13.5,-24.7,51.8,-23.1,4.2,5.0,48.88,12.84139,77.66557,,926.7762451,,50.0,,0 / 0,2391,2017-10-05 18:57:36:383
2.593,2.399,8.948,-0.373,3.526,9.143,2.924,-1.165,-0.338,-127.2,-113.7,8.0,0.0,-25.4,13.5,-24.7,51.8,-23.1,4.2,5.0,48.88,12.84139,77.66557,,926.7762451,,50.0,,0 / 0,2402,2017-10-05 18:57:36:394
2.437,1.304,9.624,0.056,3.251,9.252,2.342,-1.969,0.218,-97.5,-31.7,-4.0,0.0,-25.4,14.1,-23.6,50.6,-21.1,2.3,5.0,48.88,12.84139,77.66557,,926.7762451,,50.0,,0 / 0,2410,2017-10-05 18:57:36:402
2.437,1.304,9.624,0.056,3.251,9.252,2.342,-1.969,0.218,-97.5,46.3,-9.0,0.0,-25.4,14.1,-23.6,50.6,-21.1,2.3,5.0,48.88,12.84139,77.66557,,926.7762451,,50.0,,0 / 0,2421,2017-10-05 18:57:36:413
1.051,1.585,9.889,0.267,2.973,9.341,0.767,-1.413,0.388,-50.2,46.3,-9.0,0.0,-25.2,14.8,-22.4,50.6,-21.1,2.3,5.0,48.88,12.84139,77.66557,,926.7762451,,50.0,,0 / 0,2431,2017-10-05 18:57:36:423
1.051,1.585,9.889,0.267,2.973,9.341,0.767,-1.413,0.388,-50.2,46.3,-9.0,0.0,-25.2,14.8,-22.4,50.6,-21.1,2.3,5.0,48.88,12.84139,77.66557,,926.7762451,,50.0,,0 / 0,2441,2017-10-05 18:57:36:433
1.051,1.585,9.889,0.267,2.973,9.341,0.767,-1.413,0.388,-10.3,108.8,-8.1,0.0,-25.2,14.8,-22.4,50.6,-21.1,2.3,5.0,48.88,12.84139,77.66557,,926.7762451,,50.0,,0 / 0,2451,2017-10-05 18:57:36:443
0.27,1.566,8.862,0.038,2.903,9.367,0.228,-1.363,-0.647,-10.3,108.8,-8.1,0.0,-24.9,15.2,-20.9,49.4,-17.6,-1.6,5.0,48.88,12.84139,77.66557,,926.7762451,,50.0,,0 / 0,2461,2017-10-05 18:57:36:453
0.044,0.661,7.524,-0.245,2.671,9.433,0.288,-2.021,-2.029,-2.2,134.1,-22.8,0.0,-24.8,15.8,-19.9,49.4,-17.6,-1.6,5.0,48.88,12.84139,77.66557,,926.7762451,,50.0,,0 / 0,2471,2017-10-05 18:57:36:463
0.044,0.661,7.524,-0.245,2.671,9.433,0.288,-2.021,-2.029,-8.4,138.7,-58.3,0.0,-24.8,15.8,-19.9,49.4,-17.6,-1.6,5.0,48.88,12.84139,77.66557,,926.7762451,,50.0,,0 / 0,2480,2017-10-05 18:57:36:472
0.624,1.403,6.414,-0.245,2.671,9.433,1.271,-1.209,-3.125,1.1,147.0,-91.5,0.0,-24.6,16.4,-18.8,51.3,-15.8,1.5,5.0,48.88,12.84139,77.66557,,926.7762451,,50.0,,0 / 0,2491,2017-10-05 18:57:36:483
0.624,1.403,6.414,-0.657,2.589,9.436,1.271,-1.209,-3.125,1.1,147.0,-91.5,0.0,-24.6,16.4,-18.8,51.3,-15.8,1.5,5.0,48.88,12.84139,77.66557,,926.7762451,,50.0,,0 / 0,2501,2017-10-05 18:57:36:493
0.624,1.403,6.414,-0.657,2.589,9.436,1.271,-1.209,-3.125,1.1,147.0,-91.5,0.0,-24.6,16.4,-18.8,51.3,-15.8,1.5,5.0,48.88,12.84139,77.66557,,926.7762451,,50.0,,0 / 0,2511,2017-10-05 18:57:36:503
-1.118,1.659,3.844,-1.282,2.567,9.378,0.182,-0.934,-5.595,30.8,184.4,-101.9,0.0,-24.3,17.0,-18.3,51.3,-15.8,1.5,5.0,48.88,12.84139,77.66557,,926.7762451,,50.0,,0 / 0,2521,2017-10-05 18:57:36:513
-1.118,1.659,2.233,-1.282,2.567,9.378,0.182,-0.934,-5.595,62.2,242.5,-89.1,0.0,-23.9,17.3,-17.8,52.4,-15.2,7.8,5.0,48.88,12.84139,77.66557,,926.7762451,,50.0,,0 / 0,2531,2017-10-05 18:57:36:523
-1.786,2.327,2.233,-1.885,2.558,9.278,0.128,-0.268,-7.081,62.2,242.5,-89.1,0.0,-23.9,17.3,-17.8,52.4,-15.2,7.8,5.0,48.88,12.84139,77.66557,,926.7762451,,50.0,,0 / 0,2542,2017-10-05 18:57:36:534
-1.404,-0.348,2.571,-2.755,2.666,9.026,1.374,-3.009,-6.496,89.1,319.4,-91.0,0.0,-23.3,17.3,-17.8,52.4,-15.2,7.8,5.0,48.88,12.84139,77.66557,,926.7762451,,50.0,,0 / 0,2551,2017-10-05 18:57:36:543
-1.404,-0.348,2.571,-2.755,2.666,9.026,1.374,-3.009,-6.496,130.9,395.5,-123.3,0.0,-23.3,17.3,-17.8,52.4,-15.2,7.8,5.0,48.88,12.84139,77.66557,,926.7762451,,50.0,,0 / 0,2562,2017-10-05 18:57:36:554
-0.161,-2.543,2.809,-4.12,2.944,8.398,3.962,-5.446,-5.633,130.9,395.5,-123.3,0.0,-22.6,16.8,-18.8,54.7,-15.8,17.0,5.0,48.88,12.84139,77.66557,,926.7762451,,50.0,,0 / 0,2571,2017-10-05 18:57:36:563
-0.161,-2.543,2.809,-4.12,2.944,8.398,3.962,-5.446,-5.633,130.9,395.5,-123.3,0.0,-22.6,16.8,-18.8,54.7,-15.8,17.0,5.0,48.88,12.84139,77.66557,,926.7762451,,50.0,,0 / 0,2581,2017-10-05 18:57:36:573
-0.161,-2.543,2.809,-4.12,2.944,8.398,3.962,-5.446,-5.633,130.9,395.5,-123.3,0.0,-22.6,16.8,-18.8,54.7,-15.8,17.0,5.0,48.88,12.84139,77.66557,,926.7762451,,50.0,,0 / 0,2591,2017-10-05 18:57:36:583
-0.161,-2.543,2.809,-4.12,2.944,8.398,3.962,-5.446,-5.633,130.9,395.5,-123.3,0.0,-22.6,16.8,-18.8,54.7,-15.8,17.0,5.0,48.88,12.84139,77.66557,,926.7762451,,50.0,,0 / 0,2602,2017-10-05 18:57:36:594
0.61,-3.838,2.945,-4.76,3.008,8.029,5.361,-6.784,-5.131,187.8,463.0,-181.8,0.0,-22.6,16.8,-18.8,57.8,-17.5,26.1,5.0,48.88,12.84139,77.66557,,926.7762451,,50.0,,0 / 0,2611,2017-10-05 18:57:36:603
-4.562,-5.091,-3.19,-7.384,2.784,5.822,2.896,-7.793,-8.961,212.0,491.9,-275.1,0.0,-20.1,14.6,-22.9,57.8,-17.5,26.1,5.0,54.3,12.84139,77.66557,,926.7762451,,50.0,,0 / 0,2621,2017-10-05 18:57:36:613
-4.562,-5.091,-3.19,-7.384,2.784,5.822,2.896,-7.793,-8.961,212.0,491.9,-275.1,1.066,-20.1,14.6,-22.9,57.8,-17.5,26.1,5.0,54.3,12.84139,77.66557,,926.7762451,,50.0,,0 / 0,2631,2017-10-05 18:57:36:623
-4.175,-8.926,-1.408,-8.459,2.258,4.418,4.35,-11.04,-5.804,200.2,490.8,-303.8,1.066,-18.4,13.0,-25.6,57.8,-17.5,26.1,5.0,54.3,12.84139,77.66557,,926.7762451,,50.0,,0 / 0,2641,2017-10-05 18:57:36:633
-4.175,-8.926,-1.408,-8.459,2.258,4.418,4.35,-11.04,-5.804,201.4,488.5,-347.1,1.066,-18.4,13.0,-25.6,57.8,-17.5,26.1,5.0,54.3,12.84139,77.66557,,926.7762451,,50.0,,0 / 0,2651,2017-10-05 18:57:36:643
-5.066,-11.102,0.264,-9.283,1.273,2.893,4.298,-12.197,-2.633,201.4,488.5,-347.1,1.066,-15.8,11.1,-28.3,72.1,-13.3,62.4,5.0,54.3,12.84139,77.66557,,926.7762451,,50.0,,0 / 0,2661,2017-10-05 18:57:36:653
-5.066,-11.102,0.264,-9.283,1.273,2.893,4.298,-12.197,-2.633,214.4,462.1,-399.7,1.066,-15.8,11.1,-28.3,72.1,-13.3,62.4,5.0,54.3,12.84139,77.66557,,926.7762451,,50.0,,0 / 0,2672,2017-10-05 18:57:36:664
-5.066,-11.102,0.264,-9.283,1.273,2.893,4.298,-12.197,-2.633,225.2,392.0,-438.6,1.066,-12.7,8.5,-31.0,72.1,-13.3,62.4,5.0,54.3,12.84139,77.66557,,926.7762451,,50.0,,0 / 0,2681,2017-10-05 18:57:36:673
-9.302,-12.568,0.703,-9.7,0.128,1.435,0.547,-12.494,-0.744,225.2,392.0,-438.6,1.066,-12.7,8.5,-31.0,72.1,-13.3,62.4,5.0,54.3,12.84139,77.66557,,926.7762451,,50.0,,0 / 0,2691,2017-10-05 18:57:36:683
-11.866,-12.182,0.714,-9.711,-1.274,0.495,-1.964,-10.712,0.207,214.8,289.7,-452.3,1.066,-8.3,5.8,-33.4,80.0,-0.8,81.6,5.0,54.3,12.84139,77.66557,,926.7762451,,50.0,,0 / 0,2701,2017-10-05 18:57:36:693
-11.866,-12.182,0.714,-9.711,-1.274,0.495,-1.964,-10.712,0.207,214.8,289.7,-452.3,1.066,-8.3,5.8,-33.4,80.0,-0.8,81.6,5.0,54.3,12.84139,77.66557,,926.7762451,,50.0,,0 / 0,2710,2017-10-05 18:57:36:702
-13.677,-13.011,1.609,-9.416,-2.682,0.563,-4.042,-10.12,1.02,181.8,173.8,-448.1,1.066,-3.8,2.9,-35.5,80.0,-0.8,81.6,5.0,54.3,12.84139,77.66557,,926.7762451,,50.0,,0 / 0,2721,2017-10-05 18:57:36:713
-13.677,-13.011,1.609,-9.416,-2.682,0.563,-4.042,-10.12,1.02,131.0,44.0,-439.9,1.066,-3.8,2.9,-35.5,80.0,-0.8,81.6,5.0,54.3,12.84139,77.66557,,926.7762451,,50.0,,0 / 0,2732,2017-10-05 18:57:36:724
-15.839,-12.824,3.239,-9.187,-3.39,0.529,-6.397,-9.228,2.658,131.0,44.0,-439.9,1.066,0.9,0.5,-36.9,80.0,-0.8,81.6,5.0,54.3,12.84139,77.66557,,926.7762451,,50.0,,0 / 0,2741,2017-10-05 18:57:36:733
-15.839,-12.824,3.239,-9.187,-3.39,0.529,-6.397,-9.228,2.658,79.4,-82.2,-416.2,1.066,0.9,0.5,-36.9,80.0,-0.8,81.6,5.0,54.3,12.84139,77.66557,,926.7762451,,50.0,,0 / 0,2751,2017-10-05 18:57:36:743
-18.44,-13.217,4.776,-8.562,-4.629,1.203,-9.582,-8.376,3.496,79.4,-82.2,-416.2,1.066,5.3,-1.6,-37.7,96.6,20.2,86.7,5.0,54.3,12.84139,77.66557,,926.7762451,,50.0,,0 / 0,2761,2017-10-05 18:57:36:753
-18.44,-13.217,4.776,-8.562,-4.629,1.203,-9.582,-8.376,3.496,79.4,-82.2,-416.2,1.066,5.3,-1.6,-37.7,96.6,20.2,86.7,5.0,54.3,12.84139,77.66557,,926.7762451,,50.0,,0 / 0,2771,2017-10-05 18:57:36:763
-18.646,-14.913,5.42,-7.792,-5.75,1.547,-10.555,-8.923,3.786,47.2,-179.0,-352.3,1.066,9.7,-3.3,-37.9,96.6,20.2,86.7,5.0,54.3,12.84139,77.66557,,926.7762451,,50.0,,0 / 0,2781,2017-10-05 18:57:36:773
-18.966,-17.808,6.268,-7.792,-5.75,1.547,-10.555,-8.923,3.786,47.2,-179.0,-352.3,1.066,13.4,-4.1,-37.5,113.4,35.9,78.8,5.0,54.3,12.84139,77.66557,,926.7762451,,50.0,,0 / 0,2791,2017-10-05 18:57:36:783
-18.966,-17.808,6.268,-6.882,-6.666,2.092,-11.779,-10.857,4.076,63.2,-168.9,-328.7,0.0,13.4,-4.1,-37.5,113.4,35.9,78.8,5.0,54.3,12.84139,77.66557,,926.7762451,,50.0,,0 / 0,2801,2017-10-05 18:57:36:793
-18.966,-17.232,6.45,-6.882,-6.666,2.092,-11.779,-10.857,4.076,63.2,-168.9,-328.7,0.0,15.8,-4.5,-37.0,113.4,35.9,78.8,5.0,54.3,12.84139,77.66557,,926.7762451,,50.0,,0 / 0,2811,2017-10-05 18:57:36:803
-20.563,-17.232,6.45,-5.971,-7.31,2.661,-14.262,-9.645,3.685,63.2,-168.9,-328.7,0.0,15.8,-4.5,-37.0,113.4,35.9,78.8,5.0,54.3,12.84139,77.66557,,926.7762451,,50.0,,0 / 0,2821,2017-10-05 18:57:36:813
-20.563,-17.232,6.45,-5.971,-7.31,2.661,-14.262,-9.645,3.685,88.4,-145.7,-301.4,0.0,15.8,-4.5,-37.0,113.4,35.9,78.8,5.0,54.3,12.84139,77.66557,,926.7762451,,50.0,,0 / 0,2831,2017-10-05 18:57:36:823
-21.205,-14.983,6.156,-4.996,-7.833,3.138,-15.869,-6.91,2.919,107.9,-122.7,-270.5,0.0,17.4,-3.9,-36.7,133.5,48.2,66.0,0.0,54.3,12.84139,77.66557,,926.7762451,,50.0,,0 / 0,2842,2017-10-05 18:57:36:834
-21.205,-14.983,6.156,-4.996,-7.833,3.138,-15.869,-6.91,2.919,107.9,-101.4,-228.0,0.0,17.4,-3.9,-36.7,133.5,48.2,66.0,0.0,54.3,12.84139,77.66557,,926.7762451,,50.0,,0 / 0,2851,2017-10-05 18:57:36:843
-21.814,-12.426,5.177,-4.132,-8.147,3.566,-17.332,-4.08,1.528,117.6,-101.4,-228.0,0.0,17.6,-3.2,-36.7,133.5,48.2,66.0,0.0,54.3,12.84139,77.66557,,926.7762451,,50.0,,0 / 0,2861,2017-10-05 18:57:36:853
-21.814,-12.426,5.177,-4.132,-8.147,3.566,-17.332,-4.08,1.528,110.1,-82.6,-178.5,0.0,17.6,-3.2,-36.7,133.5,48.2,66.0,0.0,54.3,12.84139,77.66557,,926.7762451,,50.0,,0 / 0,2871,2017-10-05 18:57:36:863
-20.8,-8.782,3.464,-3.551,-8.267,3.9,-16.914,-0.374,-0.492,110.1,-82.6,-178.5,0.0,17.2,-2.2,-37.0,152.1,56.2,49.2,0.0,54.3,12.84139,77.66557,,926.7762451,,50.0,,0 / 0,2881,2017-10-05 18:57:36:873
-20.8,-8.782,3.464,-3.551,-8.267,3.9,-16.914,-0.374,-0.492,93.7,-67.7,-120.0,0.0,17.2,-2.2,-37.0,152.1,56.2,49.2,0.0,54.3,12.84139,77.66557,,926.7762451,,50.0,,0 / 0,2891,2017-10-05 18:57:36:883
-20.8,-7.8,4.632,-3.193,-8.274,4.185,-17.273,0.599,0.373,89.6,-79.7,-44.8,0.0,16.1,-1.4,-37.4,152.1,56.2,49.2,0.0,54.3,12.84139,77.66557,,926.7762451,,50.0,,0 / 0,2901,2017-10-05 18:57:36:893
-20.8,-7.8,4.632,-3.193,-8.274,4.185,-17.273,0.599,0.373,89.6,-79.7,-44.8,0.0,16.1,-1.4,-37.4,152.1,56.2,49.2,0.0,54.3,12.84139,77.66557,,926.7762451,,50.0,,0 / 0,2911,2017-10-05 18:57:36:903
-20.8,-7.8,4.632,-3.193,-8.274,4.185,-17.273,0.599,0.373,89.6,-79.7,-44.8,0.0,16.1,-1.4,-37.4,152.1,56.2,49.2,0.0,54.3,12.84139,77.66557,,926.7762451,,50.0,,0 / 0,2922,2017-10-05 18:57:36:914
-20.8,-7.8,4.632,-3.193,-8.274,4.185,-17.273,0.599,0.373,89.6,-79.7,-44.8,0.0,16.1,-1.4,-37.4,152.1,56.2,49.2,0.0,54.3,12.84139,77.66557,,926.7762451,,50.0,,0 / 0,2931,2017-10-05 18:57:36:923
-19.338,-6.468,1.014,-2.87,-8.241,4.474,-16.158,1.877,-3.476,45.5,-154.4,23.5,0.0,15.1,-0.9,-38.1,161.7,57.5,37.3,0.0,30.24,12.84139,77.66557,,926.7762451,,50.0,,0 / 0,2941,2017-10-05 18:57:36:933
-19.338,-6.468,1.014,-2.87,-8.241,4.474,-16.158,1.877,-3.476,9.2,-232.0,85.9,0.0,15.1,-0.9,-38.1,161.7,57.5,37.3,0.0,30.24,12.84139,77.66557,,926.7762451,,50.0,,0 / 0,2951,2017-10-05 18:57:36:943
-11.052,-8.864,2.437,-2.752,-7.94,5.055,-8.123,-0.781,-2.656,17.8,-247.2,122.0,0.0,12.0,-0.7,-39.7,161.7,57.5,37.3,0.0,30.24,12.84139,77.66557,,926.7762451,,50.0,,0 / 0,2961,2017-10-05 18:57:36:953
-11.052,-8.864,2.437,-2.752,-7.94,5.055,-8.123,-0.781,-2.656,45.3,-206.8,121.2,0.0,12.0,-0.7,-39.7,161.7,57.5,37.3,0.0,30.24,12.84139,77.66557,,926.7762451,,50.0,,0 / 0,2970,2017-10-05 18:57:36:962
-7.828,-11.236,4.114,-2.742,-7.774,5.312,-4.96,-3.283,-1.264,45.3,-206.8,121.2,0.0,10.3,-0.8,-40.1,162.5,54.1,28.6,0.0,30.24,12.84139,77.66557,,926.7762451,,50.0,,0 / 0,2981,2017-10-05 18:57:36:973
-7.828,-11.236,4.114,-2.742,-7.774,5.312,-4.96,-3.283,-1.264,29.9,-197.5,89.5,0.0,10.3,-0.8,-40.1,162.5,54.1,28.6,0.0,30.24,12.84139,77.66557,,926.7762451,,50.0,,0 / 0,2991,2017-10-05 18:57:36:983
-7.157,-8.15,-0.24,-2.703,-7.666,5.486,-4.339,-0.352,-5.722,29.9,-197.5,89.5,0.0,8.5,-1.4,-40.4,162.5,54.1,28.6,0.0,30.24,12.84139,77.66557,,926.7762451,,50.0,,0 / 0,3001,2017-10-05 18:57:36:993
-7.157,-8.15,-0.24,-2.703,-7.666,5.486,-4.339,-0.352,-5.722,2.4,-179.7,69.0,0.0,8.5,-1.4,-40.4,162.5,54.1,28.6,0.0,30.24,12.84139,77.66557,,926.7762451,,50.0,,0 / 0,3011,2017-10-05 18:57:37:003
-5.075,-5.668,3.511,-2.672,-7.631,5.549,-2.321,2.055,-2.094,13.2,-95.8,60.4,0.0,6.5,-1.8,-40.9,159.9,51.4,26.2,0.0,30.24,12.84139,77.66557,,926.7762451,,50.0,,0 / 0,3021,2017-10-05 18:57:37:013
-5.075,-5.668,3.511,-2.672,-7.631,5.549,-2.321,2.055,-2.094,13.2,-95.8,60.4,0.0,6.5,-1.8,-40.9,159.9,51.4,26.2,0.0,30.24,12.84139,77.66557,,926.7762451,,50.0,,0 / 0,3031,2017-10-05 18:57:37:023
-5.075,-5.668,3.511,-2.678,-7.626,5.554,-2.315,2.049,-2.099,13.2,-95.8,60.4,0.0,6.5,-1.8,-40.9,159.9,51.4,26.2,0.0,30.24,12.84139,77.66557,,926.7762451,,50.0,,0 / 0,3041,2017-10-05 18:57:37:033
-5.075,-5.668,3.511,-2.678,-7.626,5.554,-2.315,2.049,-2.099,12.0,37.8,73.7,0.0,6.5,-1.8,-40.9,159.9,51.4,26.2,0.0,30.24,12.84139,77.66557,,926.7762451,,50.0,,0 / 0,3051,2017-10-05 18:57:37:043
-6.061,-2.203,0.984,-2.95,-7.641,5.393,-3.014,5.473,-4.424,12.0,37.8,73.7,0.0,0.4,-0.4,-38.3,148.2,51.0,25.7,0.0,30.24,12.84139,77.66557,,926.7762451,,50.0,,0 / 0,3060,2017-10-05 18:57:37:052
-6.061,-2.203,0.984,-2.95,-7.641,5.393,-3.014,5.473,-4.424,-2.2,65.8,91.4,0.0,0.4,-0.4,-38.3,148.2,51.0,25.7,0.0,30.24,12.84139,77.66557,,926.7762451,,50.0,,0 / 0,3071,2017-10-05 18:57:37:063
-5.589,-2.756,3.346,-3.212,-7.552,5.369,-2.288,4.84,-2.077,-2.2,65.8,91.4,0.0,-1.9,-0.4,-38.1,148.2,51.0,25.7,0.0,30.24,12.84139,77.66557,,926.7762451,,50.0,,0 / 0,3081,2017-10-05 18:57:37:073
-5.589,-2.756,3.346,-3.478,-7.476,5.309,-0.873,4.647,-3.105,6.6,105.4,113.8,0.0,-1.9,-0.4,-38.1,148.2,51.0,25.7,0.0,30.24,12.84139,77.66557,,926.7762451,,50.0,,0 / 0,3091,2017-10-05 18:57:37:083
-4.422,-2.875,2.24,-3.478,-7.476,5.309,-0.873,4.647,-3.105,6.6,105.4,113.8,0.0,-3.9,-0.4,-38.2,133.0,49.7,33.2,0.0,30.24,12.84139,77.66557,,926.7762451,,50.0,,0 / 0,3100,2017-10-05 18:57:37:092
-4.422,-2.875,2.24,-4.011,-7.313,5.158,-0.309,5.613,-5.334,2.4,173.1,137.3,0.0,-3.9,-0.4,-38.2,133.0,49.7,33.2,0.0,30.24,12.84139,77.66557,,926.7762451,,50.0,,0 / 0,3111,2017-10-05 18:57:37:103
-4.839,-3.245,1.002,-4.011,-7.313,5.158,-0.309,5.613,-5.334,-26.0,213.3,146.0,0.0,-5.2,-0.5,-38.2,133.0,49.7,33.2,0.0,30.24,12.84139,77.66557,,926.7762451,,50.0,,0 / 0,3121,2017-10-05 18:57:37:113
-4.839,-3.245,1.002,-4.671,-7.116,4.87,-0.09,3.923,-3.884,-26.0,213.3,146.0,0.0,-5.2,-0.5,-38.2,133.0,49.7,33.2,0.0,30.24,12.84139,77.66557,,926.7762451,,50.0,,0 / 0,3131,2017-10-05 18:57:37:123
-6.377,-4.89,4.41,-4.671,-7.116,4.87,-0.09,3.923,-3.884,-41.8,216.4,137.7,1.066,-5.9,-0.7,-38.5,119.8,46.5,43.8,0.0,30.24,12.84139,77.66557,,926.7762451,,50.0,,0 / 0,3141,2017-10-05 18:57:37:133
-6.377,-4.89,4.41,-5.397,-6.919,4.379,-0.877,2.107,-0.04,-41.8,216.4,137.7,1.066,-5.9,-0.7,-38.5,119.8,46.5,43.8,0.0,30.24,12.84139,77.66557,,926.7762451,,50.0,,0 / 0,3151,2017-10-05 18:57:37:143
-6.377,-4.89,4.41,-5.397,-6.919,4.379,-0.877,2.107,-0.04,-53.8,174.8,139.6,1.066,-5.9,-0.7,-38.5,119.8,46.5,43.8,0.0,30.24,12.84139,77.66557,,926.7762451,,50.0,,0 / 0,3161,2017-10-05 18:57:37:153
-10.757,-4.001,4.54,-5.964,-6.729,3.915,-4.62,2.792,0.552,-53.8,174.8,139.6,1.066,-5.8,-0.8,-38.5,119.8,46.5,43.8,0.0,30.24,12.84139,77.66557,,926.7762451,,50.0,,0 / 0,3171,2017-10-05 18:57:37:163
-10.757,-4.001,4.54,-5.964,-6.729,3.915,-4.62,2.792,0.552,-71.9,98.4,135.0,1.066,-5.8,-0.8,-38.5,119.8,46.5,43.8,0.0,30.24,12.84139,77.66557,,926.7762451,,50.0,,0 / 0,3181,2017-10-05 18:57:37:173
-5.227,-5.674,4.498,-6.428,-6.538,3.48,1.286,0.955,0.946,-100.7,26.4,107.2,1.066,-5.3,-0.5,-38.5,109.5,43.3,56.7,0.0,30.24,12.84139,77.66557,,926.7762451,,50.0,,0 / 0,3192,2017-10-05 18:57:37:184
-5.227,-5.674,4.498,-6.428,-6.538,3.48,1.286,0.955,0.946,-100.7,26.4,107.2,1.066,-5.3,-0.5,-38.5,109.5,43.3,56.7,0.0,30.24,12.84139,77.66557,,926.7762451,,50.0,,0 / 0,3201,2017-10-05 18:57:37:193
-7.236,-4.642,3.553,-6.644,-6.429,3.27,-0.476,1.862,0.226,-107.0,-15.2,69.5,1.066,-4.1,-0.2,-38.8,109.5,43.3,56.7,0.0,30.24,12.84139,77.66557,,926.7762451,,50.0,,0 / 0,3211,2017-10-05 18:57:37:203
-7.236,-4.642,3.553,-6.644,-6.429,3.27,-0.476,1.862,0.226,-133.8,-29.0,48.6,1.066,-4.1,-0.2,-38.8,109.5,43.3,56.7,0.0,30.24,12.84139,77.66557,,926.7762451,,50.0,,0 / 0,3221,2017-10-05 18:57:37:213
-9.359,-3.443,1.664,-6.881,-6.319,2.98,-2.327,2.931,-1.343,-133.8,-29.0,48.6,1.066,-2.8,0.2,-38.7,102.5,40.1,66.6,0.0,30.24,12.84139,77.66557,,926.7762451,,50.0,,0 / 0,3231,2017-10-05 18:57:37:223
-9.359,-3.443,1.664,-6.881,-6.319,2.98,-2.327,2.931,-1.343,-171.4,-2.9,26.4,1.066,-2.8,0.2,-38.7,102.5,40.1,66.6,0.0,41.27,12.84139,77.66557,,926.7762451,,50.0,,0 / 0,3241,2017-10-05 18:57:37:233
-7.944,-5.042,0.02,-6.988,-6.318,2.725,-0.829,1.356,-2.705,-200.9,28.8,12.4,1.066,-1.2,0.6,-38.7,102.5,40.1,66.6,0.0,41.27,12.84139,77.66557,,926.7762451,,50.0,,0 / 0,3251,2017-10-05 18:57:37:243
-7.944,-5.042,0.02,-6.988,-6.318,2.725,-0.829,1.356,-2.705,-200.9,28.8,12.4,1.066,-1.2,0.6,-38.7,102.5,40.1,66.6,0.0,41.27,12.84139,77.66557,,926.7762451,,50.0,,0 / 0,3261,2017-10-05 18:57:37:253
-8.349,-6.579,1.109,-7.023,-6.47,2.232,-1.192,-0.003,-1.141,-200.6,32.1,-3.6,1.066,0.3,1.4,-38.6,103.0,40.1,68.7,0.0,41.27,12.84139,77.66557,,926.7762451,,50.0,,0 / 0,3271,2017-10-05 18:57:37:263
-8.349,-6.579,1.109,-7.023,-6.47,2.232,-1.192,-0.003,-1.141,-200.6,32.1,-3.6,1.066,0.3,1.4,-38.6,103.0,40.1,68.7,0.0,41.27,12.84139,77.66557,,926.7762451,,50.0,,0 / 0,3281,2017-10-05 18:57:37:273
-7.668,-9.326,1.127,-7.069,-6.581,1.7,-0.476,-2.595,-0.591,-167.5,31.1,-10.9,1.066,1.4,2.6,-38.5,103.0,40.1,68.7,0.0,41.27,12.84139,77.66557,,926.7762451,,50.0,,0 / 0,3290,2017-10-05 18:57:37:282
-7.668,-9.326,1.127,-7.069,-6.581,1.7,-0.476,-2.595,-0.591,-114.2,25.1,1.7,1.066,1.4,2.6,-38.5,103.0,40.1,68.7,0.0,41.27,12.84139,77.66557,,926.7762451,,50.0,,0 / 0,3301,2017-10-05 18:57:37:293
-7.932,-8.506,0.353,-7.093,-6.667,1.186,-0.711,-1.702,-0.838,-114.2,25.1,1.7,2.132,2.5,4.0,-38.3,97.8,42.2,76.5,0.0,41.27,12.84139,77.66557,,926.7762451,,50.0,,0 / 0,3311,2017-10-05 18:57:37:303
-7.932,-8.506,0.353,-7.093,-6.667,1.186,-0.711,-1.702,-0.838,-60.1,19.7,40.7,2.132,2.5,4.0,-38.3,97.8,42.2,76.5,0.0,41.27,12.84139,77.66557,,926.7762451,,50.0,,0 / 0,3321,2017-10-05 18:57:37:313
-9.884,-5.634,-0.728,-7.2,-6.59,0.954,-2.525,1.046,-1.671,-60.1,19.7,40.7,2.132,3.3,5.8,-38.1,97.8,42.2,76.5,0.0,41.27,12.84139,77.66557,,926.7762451,,50.0,,0 / 0,3331,2017-10-05 18:57:37:323
-9.884,-5.634,-0.728,-7.2,-6.59,0.954,-2.525,1.046,-1.671,-47.6,43.9,93.8,2.132,3.3,5.8,-38.1,97.8,42.2,76.5,0.0,41.27,12.84139,77.66557,,926.7762451,,50.0,,0 / 0,3341,2017-10-05 18:57:37:333
-11.699,-6.253,-2.729,-7.368,-6.445,0.586,-4.144,0.293,-3.271,-47.6,43.9,93.8,2.132,4.0,7.4,-37.5,91.3,42.2,82.5,0.0,41.27,12.84139,77.66557,,926.7762451,,50.0,,0 / 0,3351,2017-10-05 18:57:37:343
-11.699,-6.253,-2.729,-7.368,-6.445,0.586,-4.144,0.293,-3.271,-88.0,74.1,150.4,2.132,4.0,7.4,-37.5,91.3,42.2,82.5,0.0,41.27,12.84139,77.66557,,926.7762451,,50.0,,0 / 0,3361,2017-10-05 18:57:37:353
-13.538,-7.013,-2.945,-7.586,-6.209,0.259,-5.734,-0.691,-3.156,-88.0,74.1,150.4,2.132,4.3,9.1,-37.4,91.3,42.2,82.5,0.0,41.27,12.84139,77.66557,,926.7762451,,50.0,,0 / 0,3371,2017-10-05 18:57:37:363
-13.538,-7.013,-2.945,-7.586,-6.209,0.259,-5.734,-0.691,-3.156,-125.6,83.1,164.3,2.132,4.3,9.1,-37.4,91.3,42.2,82.5,0.0,41.27,12.84139,77.66557,,926.7762451,,50.0,,0 / 0,3381,2017-10-05 18:57:37:373
-7.622,-9.363,2.684,-7.877,-5.837,-0.232,0.377,-3.376,2.872,-141.8,21.3,111.1,2.132,4.6,10.7,-36.8,83.0,39.3,88.0,0.0,41.27,12.84139,77.66557,,926.7762451,,50.0,,0 / 0,3391,2017-10-05 18:57:37:383
-7.622,-9.363,2.684,-7.877,-5.837,-0.232,0.377,-3.376,2.872,-141.8,21.3,111.1,2.132,5.0,12.5,-36.5,83.0,39.3,88.0,0.0,41.27,12.84139,77.66557,,926.7762451,,50.0,,0 / 0,3402,2017-10-05 18:57:37:394
-7.622,-9.363,2.684,-8.097,-5.498,-0.617,0.342,-1.185,5.834,-148.4,-47.2,72.4,2.132,5.0,12.5,-36.5,83.0,39.3,88.0,0.0,41.27,12.84139,77.66557,,926.7762451,,50.0,,0 / 0,3410,2017-10-05 18:57:37:402
-7.882,-6.792,5.302,-8.097,-5.498,-0.617,0.342,-1.185,5.834,-128.4,-60.5,46.0,2.132,5.4,13.7,-36.1,83.0,39.3,88.0,0.0,41.27,12.84139,77.66557,,926.7762451,,50.0,,0 / 0,3421,2017-10-05 18:57:37:413
-7.882,-6.792,5.302,-8.252,-5.236,-0.805,4.623,-1.231,5.873,-128.4,-60.5,46.0,2.132,5.4,13.7,-36.1,83.0,39.3,88.0,0.0,41.27,12.84139,77.66557,,926.7762451,,50.0,,0 / 0,3431,2017-10-05 18:57:37:423
-4.923,-5.828,3.196,-8.252,-5.236,-0.805,4.623,-1.231,5.873,-104.3,-31.8,18.4,2.132,5.9,15.0,-35.5,72.7,32.3,95.6,0.0,41.27,12.84139,77.66557,,926.7762451,,50.0,,0 / 0,3440,2017-10-05 18:57:37:432
-4.923,-5.828,3.196,-8.296,-5.172,-0.771,3.453,-0.563,3.915,-74.5,-12.9,-4.9,2.132,5.9,15.0,-35.5,72.7,32.3,95.6,0.0,41.27,12.84139,77.66557,,926.7762451,,50.0,,0 / 0,3450,2017-10-05 18:57:37:442
-5.86,-3.79,1.257,-8.296,-5.172,-0.771,3.453,-0.563,3.915,-74.5,-12.9,-4.9,2.132,6.5,16.4,-34.8,72.7,32.3,95.6,0.0,41.27,12.84139,77.66557,,926.7762451,,50.0,,0 / 0,3461,2017-10-05 18:57:37:453
-5.86,-3.79,1.257,-8.35,-5.103,-0.636,2.584,1.373,1.873,-33.2,9.6,-27.1,2.132,6.5,16.4,-34.8,72.7,32.3,95.6,0.0,41.27,12.84139,77.66557,,926.7762451,,50.0,,0 / 0,3471,2017-10-05 18:57:37:463
-8.555,-4.377,-1.197,-8.35,-5.103,-0.636,2.584,1.373,1.873,-33.2,9.6,-27.1,3.198,6.7,17.6,-34.3,69.2,31.4,94.4,0.0,41.27,12.84139,77.66557,,926.7762451,,50.0,,0 / 0,3481,2017-10-05 18:57:37:473
-8.555,-4.377,-1.197,-8.362,-5.101,-0.478,-3.312,-0.482,-2.365,27.1,12.0,-12.0,3.198,6.7,17.6,-34.3,69.2,31.4,94.4,0.0,41.27,12.84139,77.66557,,926.7762451,,50.0,,0 / 0,3491,2017-10-05 18:57:37:483
-11.864,-5.674,-2.89,-8.362,-5.101,-0.478,-3.312,-0.482,-2.365,27.1,12.0,-12.0,3.198,7.0,18.5,-33.9,69.2,31.4,94.4,0.0,41.27,12.84139,77.66557,,926.7762451,,50.0,,0 / 0,3501,2017-10-05 18:57:37:493
-11.98,-4.435,-2.966,-8.365,-5.111,-0.264,-3.423,0.747,-2.654,88.1,13.6,13.6,3.198,7.0,18.5,-33.9,69.2,31.4,94.4,0.0,41.27,12.84139,77.66557,,926.7762451,,50.0,,0 / 0,3511,2017-10-05 18:57:37:503
-11.98,-4.435,-2.966,-8.365,-5.111,-0.264,-3.423,0.747,-2.654,130.3,24.8,32.8,3.198,7.0,18.5,-33.9,69.2,31.4,94.4,0.0,41.27,12.84139,77.66557,,926.7762451,,50.0,,0 / 0,3521,2017-10-05 18:57:37:513
-13.241,-3.289,-2.84,-8.367,-5.108,-0.261,-4.661,1.872,-2.534,130.3,24.8,32.8,3.198,7.3,19.4,-33.1,68.5,31.4,91.8,0.0,41.27,12.84139,77.66557,,926.7762451,,50.0,,0 / 0,3531,2017-10-05 18:57:37:523
-13.241,-3.289,-2.84,-8.367,-5.108,-0.261,-4.661,1.872,-2.534,141.0,47.6,50.2,3.198,7.3,19.4,-33.1,68.5,31.4,91.8,0.0,41.27,12.84139,77.66557,,926.7762451,,50.0,,0 / 0,3541,2017-10-05 18:57:37:533
-11.38,-3.727,-2.569,-8.419,-5.025,-0.213,-2.779,1.358,-2.315,141.0,47.6,50.2,3.198,7.2,20.2,-32.9,68.5,31.4,91.8,0.0,46.83,12.84139,77.66557,,926.7762451,,50.0,,0 / 0,3551,2017-10-05 18:57:37:543
-11.38,-3.727,-2.569,-8.419,-5.025,-0.213,-2.779,1.358,-2.315,94.9,91.6,50.6,3.198,7.2,20.2,-32.9,68.5,31.4,91.8,0.0,46.83,12.84139,77.66557,,926.7762451,,50.0,,0 / 0,3561,2017-10-05 18:57:37:553
-12.002,-5.036,-2.933,-8.49,-4.89,-0.415,-3.319,-0.065,-2.47,94.9,91.6,50.6,3.198,7.3,20.6,-32.8,65.8,30.8,91.4,0.0,46.83,12.84139,77.66557,,926.7762451,,50.0,,0 / 0,3571,2017-10-05 18:57:37:563
-12.002,-5.036,-2.933,-8.49,-4.89,-0.415,-3.319,-0.065,-2.47,46.2,58.3,90.8,3.198,7.3,20.6,-32.8,65.8,30.8,91.4,0.0,46.83,12.84139,77.66557,,926.7762451,,50.0,,0 / 0,3581,2017-10-05 18:57:37:573
-1.027,-4.947,4.832,-8.582,-4.73,-0.379,7.571,-0.137,5.133,49.6,-15.5,22.4,3.198,7.4,21.0,-32.6,65.8,30.8,91.4,0.0,46.83,12.84139,77.66557,,926.7762451,,50.0,,0 / 0,3591,2017-10-05 18:57:37:583
-1.027,-4.947,4.832,-8.582,-4.73,-0.379,7.571,-0.137,5.133,49.6,-15.5,22.4,3.198,7.4,21.0,-32.6,65.8,30.8,91.4,0.0,46.83,12.84139,77.66557,,926.7762451,,50.0,,0 / 0,3600,2017-10-05 18:57:37:592
-2.846,-3.824,3.179,-8.568,-4.748,-0.461,5.767,0.986,3.589,69.3,-2.5,-52.5,3.198,7.8,20.9,-32.6,65.4,28.8,92.5,0.0,46.83,12.84139,77.66557,,926.7762451,,50.0,,0 / 0,3611,2017-10-05 18:57:37:603
-2.846,-3.824,3.179,-8.568,-4.748,-0.461,5.767,0.986,3.589,69.3,-2.5,-52.5,3.198,7.8,20.9,-32.6,65.4,28.8,92.5,0.0,46.83,12.84139,77.66557,,926.7762451,,50.0,,0 / 0,3621,2017-10-05 18:57:37:613
-0.958,-3.838,1.857,-8.445,-4.958,-0.518,7.502,1.182,2.346,68.3,61.1,-81.3,3.198,7.8,20.4,-32.8,65.4,28.8,92.5,0.0,46.83,12.84139,77.66557,,926.7762451,,50.0,,0 / 0,3630,2017-10-05 18:57:37:622
-0.958,-3.838,1.857,-8.445,-4.958,-0.518,7.502,1.182,2.346,60.2,106.3,-117.4,3.198,7.8,20.4,-32.8,65.4,28.8,92.5,0.0,46.83,12.84139,77.66557,,926.7762451,,50.0,,0 / 0,3641,2017-10-05 18:57:37:633
-0.42,-2.634,1.523,-8.332,-5.155,-0.418,7.919,2.563,1.916,60.2,106.3,-117.4,7.463,8.1,19.4,-33.1,68.2,30.4,93.5,0.0,46.83,12.84139,77.66557,,926.7762451,,50.0,,0 / 0,3651,2017-10-05 18:57:37:643
-0.42,-2.634,1.523,-8.332,-5.155,-0.418,7.919,2.563,1.916,60.2,106.3,-117.4,7.463,8.1,19.4,-33.1,68.2,30.4,93.5,0.0,46.83,12.84139,77.66557,,926.7762451,,50.0,,0 / 0,3661,2017-10-05 18:57:37:653
-0.029,-1.401,1.609,-8.064,-5.56,-0.481,8.036,4.182,2.064,65.2,172.4,-199.5,7.463,8.3,18.8,-33.5,68.2,30.4,93.5,0.0,46.83,12.84139,77.66557,,926.7762451,,50.0,,0 / 0,3671,2017-10-05 18:57:37:663
-0.029,-1.401,1.609,-8.064,-5.56,-0.481,8.036,4.182,2.064,79.6,119.6,-293.8,7.463,8.3,18.8,-33.5,68.2,30.4,93.5,0.0,46.83,12.84139,77.66557,,926.7762451,,50.0,,0 / 0,3681,2017-10-05 18:57:37:673
2.854,-7.581,1.038,-7.386,-6.439,-0.395,10.194,-1.021,1.417,97.9,0.5,-349.5,7.463,8.8,17.8,-33.7,72.5,34.5,93.4,0.0,46.83,12.84139,77.66557,,926.7762451,,50.0,,0 / 0,3691,2017-10-05 18:57:37:683
2.854,-7.581,1.038,-7.386,-6.439,-0.395,10.194,-1.021,1.417,97.9,0.5,-349.5,7.463,8.8,17.8,-33.7,72.5,34.5,93.4,0.0,46.83,12.84139,77.66557,,926.7762451,,50.0,,0 / 0,3701,2017-10-05 18:57:37:693
-7.284,-7.662,-0.666,-6.678,-7.179,-0.187,-0.489,-0.359,-0.468,106.3,-114.9,-390.7,7.463,9.7,16.9,-33.9,72.5,34.5,93.4,0.0,46.83,12.84139,77.66557,,926.7762451,,50.0,,0 / 0,3711,2017-10-05 18:57:37:703
-7.284,-7.662,-0.666,-6.678,-7.179,-0.187,-0.489,-0.359,-0.468,75.2,-156.4,-391.1,7.463,9.7,16.9,-33.9,72.5,34.5,93.4,0.0,46.83,12.84139,77.66557,,926.7762451,,50.0,,0 / 0,3721,2017-10-05 18:57:37:713
-9.417,-6.692,-4.565,-5.692,-7.982,0.244,-3.574,1.398,-4.736,75.2,-156.4,-391.1,7.463,10.2,16.1,-33.9,82.9,47.1,91.6,0.0,46.83,12.84139,77.66557,,926.7762451,,50.0,,0 / 0,3731,2017-10-05 18:57:37:723
-9.417,-6.692,-4.565,-5.692,-7.982,0.244,-3.574,1.398,-4.736,-20.9,-46.0,-280.5,7.463,10.2,16.1,-33.9,82.9,47.1,91.6,0.0,46.83,12.84139,77.66557,,926.7762451,,50.0,,0 / 0,3741,2017-10-05 18:57:37:733
-14.412,-8.91,-4.431,-4.876,-8.502,0.325,-9.304,-0.265,-4.685,-20.9,-46.0,-280.5,7.463,10.4,15.6,-33.8,82.9,47.1,91.6,0.0,46.83,12.84139,77.66557,,926.7762451,,50.0,,0 / 0,3751,2017-10-05 18:57:37:743
-14.412,-8.91,-4.431,-4.876,-8.502,0.325,-9.304,-0.265,-4.685,-13.9,-44.9,-103.0,7.463,10.4,15.6,-33.8,82.9,47.1,91.6,0.0,46.83,12.84139,77.66557,,926.7762451,,50.0,,0 / 0,3761,2017-10-05 18:57:37:753
-16.838,-16.583,8.915,-4.385,-8.755,0.536,-12.183,-7.561,8.236,-13.9,-44.9,-103.0,7.463,10.1,15.5,-33.9,95.4,60.1,86.2,0.0,46.83,12.84139,77.66557,,926.7762451,,50.0,,0 / 0,3771,2017-10-05 18:57:37:763
-16.838,-16.583,8.915,-4.511,-8.694,0.488,-7.795,-8.874,-3.647,-33.0,-40.0,84.2,7.463,9.5,15.2,-34.0,95.4,60.1,86.2,0.0,46.83,12.84139,77.66557,,926.7762451,,50.0,,0 / 0,3781,2017-10-05 18:57:37:773
-12.507,-17.854,-3.21,-4.511,-8.694,0.488,-7.795,-8.874,-3.647,-33.0,-40.0,84.2,7.463,9.5,15.2,-34.0,95.4,60.1,86.2,0.0,46.83,12.84139,77.66557,,926.7762451,,50.0,,0 / 0,3791,2017-10-05 18:57:37:783
-12.507,-17.854,-3.21,-4.24,-8.84,0.222,0.013,-7.408,-4.348,-33.0,-47.9,102.8,7.463,8.9,15.1,-34.0,95.4,60.1,86.2,0.0,46.83,12.84139,77.66557,,926.7762451,,50.0,,0 / 0,3801,2017-10-05 18:57:37:793
-2.28,-11.203,-0.739,-4.24,-8.84,0.222,0.013,-7.408,-4.348,-33.0,-47.9,102.8,7.463,8.9,15.1,-34.0,95.4,60.1,86.2,0.0,46.83,12.84139,77.66557,,926.7762451,,50.0,,0 / 0,3811,2017-10-05 18:57:37:803
-2.28,-11.203,-0.739,-4.391,-8.769,0.058,2.148,-2.255,-0.785,11.4,-8.8,11.4,6.397,8.1,15.0,-33.8,93.9,64.3,87.0,0.0,46.83,12.84139,77.66557,,926.7762451,,50.0,,0 / 0,3821,2017-10-05 18:57:37:813
-5.002,-7.87,-0.875,-4.391,-8.769,0.058,2.148,-2.255,-0.785,55.7,36.6,-34.2,6.397,8.1,15.0,-33.8,93.9,64.3,87.0,0.0,46.83,12.84139,77.66557,,926.7762451,,50.0,,0 / 0,3831,2017-10-05 18:57:37:823
-5.002,-7.87,-0.875,-4.288,-8.819,0.078,-0.634,1.076,-0.94,55.7,36.6,-34.2,6.397,7.5,15.1,-33.8,93.9,64.3,87.0,0.0,46.83,12.84139,77.66557,,926.7762451,,50.0,,0 / 0,3841,2017-10-05 18:57:37:833
-4.247,-6.809,-0.823,-4.288,-8.819,0.078,-0.634,1.076,-0.94,55.7,36.6,-34.2,6.397,7.5,15.1,-33.8,93.9,64.3,87.0,0.0,46.83,12.84139,77.66557,,926.7762451,,50.0,,0 / 0,3851,2017-10-05 18:57:37:843
-4.247,-6.809,-0.823,-4.246,-8.839,0.045,-0.649,2.202,0.736,66.9,107.1,-33.3,6.397,6.6,15.5,-33.7,90.5,64.1,89.0,0.0,59.48,12.84139,77.66557,,926.7762451,,50.0,,0 / 0,3861,2017-10-05 18:57:37:853
-4.975,-6.745,0.794,-4.246,-8.839,0.045,-0.649,2.202,0.736,58.4,82.0,-27.1,6.397,6.6,15.5,-33.7,90.5,64.1,89.0,0.0,59.48,12.84139,77.66557,,926.7762451,,50.0,,0 / 0,3871,2017-10-05 18:57:37:863
-4.975,-6.745,0.794,-4.154,-8.883,0.097,-1.902,2.684,0.223,58.4,82.0,-27.1,6.397,5.6,15.5,-33.9,90.5,64.1,89.0,0.0,59.48,12.84139,77.66557,,926.7762451,,50.0,,0 / 0,3881,2017-10-05 18:57:37:873
-6.155,-6.301,0.325,-4.154,-8.883,0.097,-1.902,2.684,0.223,47.9,53.7,-21.4,6.397,5.6,15.5,-33.9,90.5,64.1,89.0,0.0,59.48,12.84139,77.66557,,926.7762451,,50.0,,0 / 0,3891,2017-10-05 18:57:37:883
-6.155,-6.301,0.325,-4.078,-8.918,0.124,-2.247,3.169,0.448,47.9,53.7,-21.4,6.397,5.0,15.4,-34.0,88.1,64.9,88.7,0.0,59.48,12.84139,77.66557,,926.7762451,,50.0,,0 / 0,3901,2017-10-05 18:57:37:893
-7.762,-6.01,-0.315,-4.078,-8.918,0.124,-2.247,3.169,0.448,47.9,53.7,-21.4,6.397,5.0,15.4,-34.0,88.1,64.9,88.7,0.0,59.48,12.84139,77.66557,,926.7762451,,50.0,,0 / 0,3911,2017-10-05 18:57:37:903
-7.762,-6.01,-0.315,-4.06,-8.925,0.15,-3.577,3.012,-0.459,17.3,43.5,-1.2,6.397,4.8,15.0,-34.0,88.1,64.9,88.7,0.0,59.48,12.84139,77.66557,,926.7762451,,50.0,,0 / 0,3921,2017-10-05 18:57:37:913
-7.762,-6.01,-0.315,-4.06,-8.925,0.15,-3.577,3.012,-0.459,-25.8,44.4,22.2,6.397,4.8,15.0,-34.0,88.1,64.9,88.7,0.0,59.48,12.84139,77.66557,,926.7762451,,50.0,,0 / 0,3931,2017-10-05 18:57:37:923
-8.028,-6.006,-0.5,-4.067,-8.922,0.151,-3.832,3.012,-0.643,-25.8,44.4,22.2,6.397,5.2,14.9,-34.2,89.1,65.5,87.9,0.0,59.48,12.84139,77.66557,,926.7762451,,50.0,,0 / 0,3941,2017-10-05 18:57:37:933
-7.304,-7.94,0.237,-4.067,-8.922,0.151,-3.832,3.012,-0.643,-57.2,51.6,27.9,6.397,5.2,14.9,-34.2,89.1,65.5,87.9,0.0,59.48,12.84139,77.66557,,926.7762451,,50.0,,0 / 0,3952,2017-10-05 18:57:37:944
-7.304,-7.94,0.237,-4.142,-8.889,-0.079,-2.718,1.072,1.752,-57.2,51.6,27.9,6.397,5.2,14.9,-34.2,89.1,65.5,87.9,0.0,59.48,12.84139,77.66557,,926.7762451,,50.0,,0 / 0,3961,2017-10-05 18:57:37:953
-6.971,-7.944,1.701,-4.142,-8.889,-0.079,-2.718,1.072,1.752,-57.1,62.2,19.0,6.397,5.4,14.9,-34.2,89.1,65.5,87.9,0.0,59.48,12.84139,77.66557,,926.7762451,,50.0,,0 / 0,3970,2017-10-05 18:57:37:962
-6.561,-6.359,1.662,-4.159,-8.876,-0.3,-2.297,2.619,1.935,-57.1,62.2,19.0,6.397,5.4,14.9,-34.2,89.1,65.5,87.9,0.0,59.48,12.84139,77.66557,,926.7762451,,50.0,,0 / 0,3981,2017-10-05 18:57:37:973
-6.561,-6.359,1.662,-4.159,-8.876,-0.3,-2.297,2.619,1.935,-57.1,62.2,19.0,6.397,5.4,14.9,-34.2,89.1,65.5,87.9,0.0,59.48,12.84139,77.66557,,926.7762451,,50.0,,0 / 0,3991,2017-10-05 18:57:37:983
-6.561,-6.359,1.662,-4.139,-8.88,-0.436,-2.317,2.623,2.072,-33.0,102.2,-8.3,7.463,6.1,14.6,-34.2,84.7,64.8,94.1,0.0,59.48,12.84139,77.66557,,926.7762451,,50.0,,0 / 0,4001,2017-10-05 18:57:37:993
-5.299,-6.945,0.64,-3.992,-8.94,-0.558,-0.345,0.422,0.938,18.6,181.7,-70.8,7.463,6.7,14.3,-34.4,84.7,64.8,94.1,0.0,59.48,12.84139,77.66557,,926.7762451,,50.0,,0 / 0,4011,2017-10-05 18:57:38:003
-4.407,-8.657,0.386,-3.992,-8.94,-0.558,-0.345,0.422,0.938,18.6,181.7,-70.8,7.463,6.7,14.3,-34.4,84.7,64.8,94.1,0.0,59.48,12.84139,77.66557,,926.7762451,,50.0,,0 / 0,4023,2017-10-05 18:57:38:015
-4.407,-8.657,0.386,-3.83,-9.005,-0.633,0.926,-1.353,-1.658,27.2,145.6,-81.2,7.463,7.4,14.1,-34.4,83.9,65.7,98.0,0.0,59.48,12.84139,77.66557,,926.7762451,,50.0,,0 / 0,4031,2017-10-05 18:57:38:023
-2.952,-10.527,-2.329,-3.691,-9.063,-0.632,0.787,-1.295,-1.66,27.2,145.6,-81.2,7.463,8.5,14.2,-34.2,83.9,65.7,98.0,0.0,59.48,12.84139,77.66557,,926.7762451,,50.0,,0 / 0,4041,2017-10-05 18:57:38:033
-2.952,-10.527,-2.329,-3.691,-9.063,-0.632,0.787,-1.295,-1.66,8.7,85.1,-87.6,7.463,8.5,14.2,-34.2,83.9,65.7,98.0,0.0,59.48,12.84139,77.66557,,926.7762451,,50.0,,0 / 0,4052,2017-10-05 18:57:38:044
-2.952,-10.527,-2.329,-3.691,-9.063,-0.632,0.787,-1.295,-1.66,8.7,85.1,-87.6,7.463,8.5,14.2,-34.2,83.9,65.7,98.0,0.0,59.48,12.84139,77.66557,,926.7762451,,50.0,,0 / 0,4061,2017-10-05 18:57:38:053
-6.571,-8.447,-1.765,-3.413,-9.169,-0.676,-3.052,0.857,-1.061,-0.8,58.2,-91.3,7.463,9.2,14.0,-34.1,83.9,65.7,98.0,0.0,59.48,12.84139,77.66557,,926.7762451,,50.0,,0 / 0,4071,2017-10-05 18:57:38:063
-6.571,-7.19,-0.419,-3.138,-9.266,-0.679,-0.879,2.191,0.267,9.9,63.0,-72.7,7.463,10.3,14.3,-33.7,86.5,70.9,102.2,0.0,59.48,12.84139,77.66557,,926.7762451,,50.0,,0 / 0,4081,2017-10-05 18:57:38:073
-4.083,-7.19,-0.419,-3.138,-9.266,-0.679,-0.879,2.191,0.267,9.9,63.0,-72.7,7.463,10.3,14.3,-33.7,86.5,70.9,102.2,0.0,59.48,12.84139,77.66557,,926.7762451,,50.0,,0 / 0,4091,2017-10-05 18:57:38:083
-0.703,-6.169,0.065,-2.92,-9.324,-0.839,2.228,3.254,0.902,24.9,74.9,-32.3,7.463,11.0,14.5,-33.2,86.5,70.9,102.2,0.0,59.48,12.84139,77.66557,,926.7762451,,50.0,,0 / 0,4101,2017-10-05 18:57:38:093
-0.703,-6.169,0.065,-2.92,-9.324,-0.839,2.228,3.254,0.902,24.9,74.9,-32.3,7.463,11.0,14.5,-33.2,86.5,70.9,102.2,0.0,59.48,12.84139,77.66557,,926.7762451,,50.0,,0 / 0,4111,2017-10-05 18:57:38:103
0.996,-4.222,0.305,-2.718,-9.368,-1.013,3.698,5.214,1.313,24.9,107.0,-32.9,7.463,12.1,14.9,-32.6,86.2,72.0,106.0,0.0,59.48,12.84139,77.66557,,926.7762451,,50.0,,0 / 0,4121,2017-10-05 18:57:38:113
0.996,-4.222,0.305,-2.718,-9.368,-1.013,3.698,5.214,1.313,-32.4,107.0,-32.9,7.463,12.1,14.9,-32.6,86.2,72.0,106.0,0.0,59.48,12.84139,77.66557,,926.7762451,,50.0,,0 / 0,4131,2017-10-05 18:57:38:123
0.996,-4.222,0.305,-2.718,-9.368,-1.013,3.698,5.214,1.313,-48.1,53.2,-34.4,7.463,12.1,14.9,-32.6,86.2,72.0,106.0,0.0,59.48,12.84139,77.66557,,926.7762451,,50.0,,0 / 0,4141,2017-10-05 18:57:38:133
-0.597,-9.361,3.135,-2.587,-9.383,-1.203,1.999,0.172,4.287,-29.8,-15.0,-42.4,7.463,12.8,15.4,-32.2,86.2,72.0,106.0,0.0,59.48,12.84139,77.66557,,926.7762451,,50.0,,0 / 0,4151,2017-10-05 18:57:38:143
-2.04,-10.786,1.984,-2.447,-9.435,-1.074,0.44,-1.177,3.026,-29.8,-15.0,-42.4,5.33,13.6,15.7,-31.6,82.8,74.2,113.7,0.0,59.48,12.84139,77.66557,,926.7762451,,50.0,,0 / 0,4161,2017-10-05 18:57:38:153
-2.04,-10.786,1.984,-2.378,-9.459,-1.017,0.44,-1.177,3.026,5.2,-67.9,-49.5,5.33,13.6,15.7,-31.6,82.8,74.2,113.7,0.0,59.48,12.84139,77.66557,,926.7762451,,50.0,,0 / 0,4170,2017-10-05 18:57:38:162
-2.04,-10.786,1.984,-2.378,-9.459,-1.017,0.44,-1.177,3.026,5.2,-67.9,-49.5,5.33,13.6,15.8,-31.4,82.8,74.2,113.7,0.0,59.48,12.84139,77.66557,,926.7762451,,50.0,,0 / 0,4181,2017-10-05 18:57:38:173
-4.346,-11.279,-2.057,-2.264,-9.512,-0.75,-1.951,-1.619,-1.07,27.6,-83.3,-39.9,5.33,14.3,15.8,-31.4,82.8,74.2,113.7,0.0,45.21,12.84139,77.66557,,926.7762451,,50.0,,0 / 0,4191,2017-10-05 18:57:38:183
-3.163,-9.725,-3.063,-2.221,-9.536,-0.545,-0.892,-0.032,-2.468,30.4,-75.4,-25.8,5.33,14.8,16.1,-31.1,90.8,75.9,108.3,0.0,45.21,12.84139,77.66557,,926.7762451,,50.0,,0 / 0,4202,2017-10-05 18:57:38:194
-3.163,-9.725,-3.063,-2.221,-9.536,-0.545,-0.892,-0.032,-2.468,30.4,-75.4,-25.8,5.33,14.8,16.1,-31.1,90.8,75.9,108.3,0.0,45.21,12.84139,77.66557,,926.7762451,,50.0,,0 / 0,4211,2017-10-05 18:57:38:203
-2.308,-8.045,-2.625,-2.123,-9.566,-0.397,-0.149,1.65,-2.186,26.5,-57.9,-15.2,5.33,15.0,16.5,-30.8,90.8,75.9,108.3,0.0,45.21,12.84139,77.66557,,926.7762451,,50.0,,0 / 0,4221,2017-10-05 18:57:38:213
-2.308,-8.045,-2.625,-2.123,-9.566,-0.397,-0.149,1.65,-2.186,26.5,-57.9,-15.2,5.33,15.0,16.5,-30.8,90.8,75.9,108.3,0.0,45.21,12.84139,77.66557,,926.7762451,,50.0,,0 / 0,4231,2017-10-05 18:57:38:223
-2.153,-7.807,-1.655,-2.078,-9.579,-0.323,-0.041,1.896,-1.305,13.9,-53.2,-6.3,5.33,14.7,16.7,-30.8,98.7,77.3,100.6,0.0,45.21,12.84139,77.66557,,926.7762451,,50.0,,0 / 0,4241,2017-10-05 18:57:38:233
-2.153,-7.807,-1.655,-2.078,-9.579,-0.323,-0.041,1.896,-1.305,-3.9,-65.8,0.6,5.33,14.7,16.7,-30.8,98.7,77.3,100.6,0.0,45.21,12.84139,77.66557,,926.7762451,,50.0,,0 / 0,4252,2017-10-05 18:57:38:244
-2.153,-7.807,-1.655,-2.078,-9.579,-0.323,-0.041,1.896,-1.305,-3.9,-65.8,0.6,5.33,14.4,17.1,-30.7,98.7,77.3,100.6,0.0,45.21,12.84139,77.66557,,926.7762451,,50.0,,0 / 0,4261,2017-10-05 18:57:38:253
-2.154,-7.196,-0.048,-2.097,-9.57,-0.433,-0.023,2.489,0.386,-10.6,-94.0,7.6,5.33,14.4,17.1,-30.7,98.7,77.3,100.6,0.0,45.21,12.84139,77.66557,,926.7762451,,50.0,,0 / 0,4271,2017-10-05 18:57:38:263
-2.154,-7.196,-0.048,-2.097,-9.57,-0.433,-0.023,2.489,0.386,-10.6,-94.0,7.6,5.33,14.4,17.1,-30.7,98.7,77.3,100.6,0.0,45.21,12.84139,77.66557,,926.7762451,,50.0,,0 / 0,4281,2017-10-05 18:57:38:273
-2.62,-9.892,0.661,-2.113,-9.566,-0.439,-0.466,-0.167,1.09,-10.6,-94.0,7.6,5.33,14.0,17.0,-30.8,96.1,77.4,101.7,0.0,45.21,12.84139,77.66557,,926.7762451,,50.0,,0 / 0,4291,2017-10-05 18:57:38:283
-3.778,-11.539,-0.212,-2.085,-9.574,-0.41,-1.632,-1.78,0.202,-8.3,-104.4,-1.3,5.33,13.6,17.0,-31.0,96.1,77.4,101.7,0.0,45.21,12.84139,77.66557,,926.7762451,,50.0,,0 / 0,4301,2017-10-05 18:57:38:293
-3.778,-11.539,-0.212,-2.085,-9.574,-0.41,-1.632,-1.78,0.202,1.3,-96.8,-25.9,5.33,13.6,17.0,-31.0,96.1,77.4,101.7,0.0,45.21,12.84139,77.66557,,926.7762451,,50.0,,0 / 0,4311,2017-10-05 18:57:38:303
-3.778,-11.539,-0.212,-2.048,-9.584,-0.364,-1.67,-1.77,0.155,8.5,-91.2,-50.2,5.33,13.6,17.0,-31.0,96.1,77.4,101.7,0.0,45.21,12.84139,77.66557,,926.7762451,,50.0,,0 / 0,4321,2017-10-05 18:57:38:313
-3.778,-11.539,-0.212,-2.048,-9.584,-0.364,-1.67,-1.77,0.155,8.5,-91.2,-50.2,5.33,13.6,17.0,-31.0,96.1,77.4,101.7,0.0,45.21,12.84139,77.66557,,926.7762451,,50.0,,0 / 0,4331,2017-10-05 18:57:38:323
-5.441,-10.934,-1.328,-1.972,-9.603,-0.256,-3.381,-1.155,-1.051,6.6,-90.8,-49.4,5.33,12.7,17.2,-31.1,96.3,77.8,100.1,0.0,45.21,12.84139,77.66557,,926.7762451,,50.0,,0 / 0,4341,2017-10-05 18:57:38:333
-4.463,-10.637,-1.029,-1.819,-9.636,-0.13,-2.572,-0.831,-0.882,6.6,-90.8,-49.4,5.33,11.7,17.2,-31.5,96.3,77.8,100.1,0.0,45.21,12.84139,77.66557,,926.7762451,,50.0,,0 / 0,4351,2017-10-05 18:57:38:343
-4.463,-10.637,-1.029,-1.819,-9.636,-0.13,-2.572,-0.831,-0.882,-3.8,-92.7,-42.8,5.33,11.7,17.2,-31.5,96.3,77.8,100.1,0.0,45.21,12.84139,77.66557,,926.7762451,,50.0,,0 / 0,4361,2017-10-05 18:57:38:353
-3.974,-9.604,-0.592,-1.68,-9.661,-0.107,-2.23,0.211,-0.475,-2.5,-87.6,-35.5,5.33,10.6,17.2,-31.9,99.3,79.3,94.1,0.0,45.21,12.84139,77.66557,,926.7762451,,50.0,,0 / 0,4371,2017-10-05 18:57:38:363
-3.974,-9.604,-0.592,-1.68,-9.661,-0.107,-2.23,0.211,-0.475,-2.5,-87.6,-35.5,5.33,10.6,17.2,-31.9,99.3,79.3,94.1,0.0,45.21,12.84139,77.66557,,926.7762451,,50.0,,0 / 0,4380,2017-10-05 18:57:38:372
-3.36,-10.152,-0.498,-1.563,-9.681,-0.083,-1.743,-0.308,-0.407,18.0,-57.4,-30.0,5.33,9.7,16.9,-32.2,99.3,79.3,94.1,0.0,45.21,12.84139,77.66557,,926.7762451,,50.0,,0 / 0,4391,2017-10-05 18:57:38:383
-3.36,-10.152,-0.498,-1.563,-9.681,-0.083,-1.743,-0.308,-0.407,39.0,-59.5,-35.0,5.33,9.7,16.9,-32.2,99.3,79.3,94.1,0.0,45.21,12.84139,77.66557,,926.7762451,,50.0,,0 / 0,4402,2017-10-05 18:57:38:394
-2.46,-10.702,0.478,-1.447,-9.699,0.038,-0.974,-0.831,0.433,39.0,-59.5,-35.0,5.33,8.7,17.2,-32.3,97.9,80.8,93.0,0.0,45.21,12.84139,77.66557,,926.7762451,,50.0,,0 / 0,4412,2017-10-05 18:57:38:404
-2.46,-10.702,0.478,-1.447,-9.699,0.038,-0.974,-0.831,0.433,47.9,-92.9,-43.1,5.33,8.7,17.2,-32.3,97.9,80.8,93.0,0.0,45.21,12.84139,77.66557,,926.7762451,,50.0,,0 / 0,4422,2017-10-05 18:57:38:414
-1.982,-9.062,-1.203,-1.292,-9.719,0.19,-0.658,0.803,-1.374,47.9,-92.9,-43.1,5.33,7.9,16.9,-32.6,97.9,80.8,93.0,0.0,45.21,12.84139,77.66557,,926.7762451,,50.0,,0 / 0,4430,2017-10-05 18:57:38:422
-1.982,-9.062,-1.203,-1.292,-9.719,0.19,-0.658,0.803,-1.374,52.0,-56.7,-52.5,5.33,7.9,16.9,-32.6,97.9,80.8,93.0,0.0,45.21,12.84139,77.66557,,926.7762451,,50.0,,0 / 0,4441,2017-10-05 18:57:38:433
-2.062,-7.752,-1.778,-1.131,-9.734,0.361,-0.898,2.106,-2.111,52.0,-56.7,-52.5,5.33,6.9,16.8,-32.6,106.5,82.3,81.6,0.0,45.21,12.84139,77.66557,,926.7762451,,50.0,,0 / 0,4452,2017-10-05 18:57:38:444
-2.062,-7.752,-1.778,-1.131,-9.734,0.361,-0.898,2.106,-2.111,53.6,11.9,-59.0,5.33,6.9,16.8,-32.6,106.5,82.3,81.6,0.0,45.21,12.84139,77.66557,,926.7762451,,50.0,,0 / 0,4461,2017-10-05 18:57:38:453
-1.643,-8.349,0.01,-0.933,-9.746,0.554,-0.684,1.531,-0.544,50.7,33.5,-59.7,5.33,5.6,16.7,-32.8,106.5,82.3,81.6,0.0,45.21,12.84139,77.66557,,926.7762451,,50.0,,0 / 0,4471,2017-10-05 18:57:38:463
-1.643,-8.349,0.01,-0.933,-9.746,0.554,-0.684,1.531,-0.544,50.7,33.5,-59.7,5.33,5.6,16.7,-32.8,106.5,82.3,81.6,0.0,45.21,12.84139,77.66557,,926.7762451,,50.0,,0 / 0,4481,2017-10-05 18:57:38:473
-1.507,-9.454,1.411,-0.757,-9.757,0.637,-0.725,0.454,0.752,43.9,5.5,-53.3,5.33,4.6,16.6,-32.9,126.5,83.6,59.3,0.0,45.21,12.84139,77.66557,,926.7762451,,50.0,,0 / 0,4491,2017-10-05 18:57:38:483
-1.507,-9.454,1.411,-0.757,-9.757,0.637,-0.725,0.454,0.752,43.9,5.5,-53.3,5.33,4.6,16.6,-32.9,126.5,83.6,59.3,0.0,45.21,12.84139,77.66557,,926.7762451,,50.0,,0 / 0,4501,2017-10-05 18:57:38:493
-2.216,-10.416,2.192,-0.563,-9.762,0.75,-1.617,-0.487,1.407,47.6,-34.3,-53.0,9.595,3.7,16.3,-33.0,126.5,83.6,59.3,0.0,45.13,12.84139,77.66557,,926.7762451,,50.0,,0 / 0,4512,2017-10-05 18:57:38:504
-2.216,-10.416,2.192,-0.563,-9.762,0.75,-1.617,-0.487,1.407,54.3,-49.0,-55.8,9.595,3.7,16.3,-33.0,126.5,83.6,59.3,0.0,45.13,12.84139,77.66557,,926.7762451,,50.0,,0 / 0,4521,2017-10-05 18:57:38:513
-2.216,-10.416,2.192,-0.563,-9.762,0.75,-1.617,-0.487,1.407,54.3,-49.0,-55.8,9.595,2.9,16.0,-33.0,146.7,84.5,36.9,0.0,45.13,12.84139,77.66557,,926.7762451,,50.0,,0 / 0,4531,2017-10-05 18:57:38:523
-3.162,-10.27,1.186,-0.366,-9.757,0.92,-2.745,-0.349,0.248,54.3,-43.3,-52.2,9.595,2.9,16.0,-33.0,146.7,84.5,36.9,0.0,45.13,12.84465,77.66381,,926.7762451,,600.0,,0 / 0,4541,2017-10-05 18:57:38:533
-4.846,-9.746,-0.321,-0.271,-9.747,1.042,-4.497,0.158,-1.357,52.7,-43.3,-52.2,9.595,2.3,15.8,-33.0,146.7,84.5,36.9,0.0,45.13,12.84465,77.66381,,926.7762451,,600.0,,0 / 0,4553,2017-10-05 18:57:38:545
-4.846,-9.746,-0.321,-0.271,-9.747,1.042,-4.497,0.158,-1.357,52.7,-43.3,-52.2,9.595,2.3,15.8,-33.0,146.7,84.5,36.9,0.0,45.13,12.84465,77.66381,,926.7762451,,600.0,,0 / 0,4561,2017-10-05 18:57:38:553
-0.396,-7.227,-0.353,-0.271,-9.747,1.042,-4.497,0.158,-1.357,-20.6,-55.8,9.5,9.595,1.7,15.2,-33.4,168.2,83.7,14.6,0.0,45.13,12.84465,77.66381,,926.7762451,,600.0,,0 / 0,4572,2017-10-05 18:57:38:564
-0.396,-7.227,-0.353,-0.149,-9.729,1.225,-0.24,2.617,-1.573,-20.6,-55.8,9.5,9.595,1.7,15.2,-33.4,168.2,83.7,14.6,0.0,45.13,12.84465,77.66381,,926.7762451,,600.0,,0 / 0,4581,2017-10-05 18:57:38:573
3.022,-9.844,0.704,-0.149,-9.74,1.133,3.122,0.054,-0.44,-30.9,-42.6,3.4,9.595,0.7,14.9,-33.7,168.2,83.7,14.6,0.0,45.13,12.84465,77.66381,,926.7762451,,600.0,,0 / 0,4591,2017-10-05 18:57:38:583
3.022,-9.844,0.704,-0.149,-9.74,1.133,3.122,0.054,-0.44,-30.9,-42.6,3.4,9.595,0.7,14.9,-33.7,168.2,83.7,14.6,0.0,45.13,12.84465,77.66381,,926.7762451,,600.0,,0 / 0,4601,2017-10-05 18:57:38:593
3.022,-9.844,0.704,-0.149,-9.74,1.133,3.122,0.054,-0.44,-25.7,-23.4,-20.1,9.595,0.2,14.3,-34.1,172.1,83.3,7.5,0.0,45.13,12.84465,77.66381,,926.7762451,,600.0,,0 / 0,4611,2017-10-05 18:57:38:603
2.04,-11.251,2.563,-0.043,-9.754,1.018,2.051,-1.317,1.504,-25.7,-23.4,-20.1,9.595,0.2,14.3,-34.1,172.1,83.3,7.5,0.0,45.13,12.84465,77.66381,,926.7762451,,600.0,,0 / 0,4621,2017-10-05 18:57:38:613
2.04,-11.251,2.563,-0.043,-9.754,1.018,2.051,-1.317,1.504,-14.8,-6.6,-37.1,9.595,0.2,14.3,-34.1,172.1,83.3,7.5,0.0,45.13,12.84465,77.66381,,926.7762451,,600.0,,0 / 0,4631,2017-10-05 18:57:38:623
-0.071,-14.121,2.58,0.023,-9.768,0.87,-0.092,-4.126,1.669,-14.8,-6.6,-37.1,9.595,-0.4,14.2,-34.3,172.1,83.3,7.5,0.0,45.13,12.84465,77.66381,,926.7762451,,600.0,,0 / 0,4641,2017-10-05 18:57:38:633
-0.071,-14.121,2.58,0.023,-9.768,0.87,-0.092,-4.126,1.669,-4.5,-22.3,-44.8,9.595,-0.4,14.2,-34.3,172.1,83.3,7.5,0.0,45.13,12.84465,77.66381,,926.7762451,,600.0,,0 / 0,4652,2017-10-05 18:57:38:644
-4.245,-9.188,-1.294,0.179,-9.771,0.819,-4.356,0.731,-2.092,-4.5,-22.3,-44.8,9.595,-0.9,14.2,-34.5,179.9,84.9,-1.5,0.0,45.13,12.84465,77.66381,,926.7762451,,600.0,,0 / 0,4661,2017-10-05 18:57:38:653
-4.245,-9.188,-1.294,0.179,-9.771,0.819,-4.356,0.731,-2.092,-7.1,-40.6,-38.6,9.595,-0.9,14.2,-34.5,179.9,84.9,-1.5,0.0,45.13,12.84465,77.66381,,926.7762451,,600.0,,0 / 0,4671,2017-10-05 18:57:38:663
-3.376,-6.128,-1.534,0.311,-9.768,0.814,-3.634,3.738,-2.324,-22.4,-24.9,-38.9,9.595,-1.5,14.3,-34.7,179.9,84.9,-1.5,0.0,45.13,12.84465,77.66381,,926.7762451,,600.0,,0 / 0,4681,2017-10-05 18:57:38:673
-3.376,-6.128,-1.534,0.311,-9.768,0.814,-3.634,3.738,-2.324,-28.3,-46.5,-30.5,9.595,-1.5,14.3,-34.7,179.9,84.9,-1.5,0.0,45.13,12.84465,77.66381,,926.7762451,,600.0,,0 / 0,4691,2017-10-05 18:57:38:683
-1.298,-4.876,-0.044,0.441,-9.77,0.727,-1.718,4.972,-0.77,-28.3,-46.5,-30.5,9.595,-2.1,14.2,-34.9,198.4,84.9,-20.9,0.0,45.13,12.84465,77.66381,,926.7762451,,600.0,,0 / 0,4702,2017-10-05 18:57:38:694
-1.298,-4.876,-0.044,0.441,-9.77,0.727,-1.718,4.972,-0.77,-28.3,-46.5,-30.5,9.595,-2.1,14.2,-34.9,198.4,84.9,-20.9,0.0,45.13,12.84465,77.66381,,926.7762451,,600.0,,0 / 0,4711,2017-10-05 18:57:38:703
1.293,-6.501,0.878,0.567,-9.777,0.518,0.705,3.379,0.346,-28.4,-47.6,-34.6,9.595,-2.8,14.1,-35.0,198.4,84.9,-20.9,0.0,45.13,12.84465,77.66381,,926.7762451,,600.0,,0 / 0,4721,2017-10-05 18:57:38:713
1.293,-6.501,0.878,0.567,-9.777,0.518,0.705,3.379,0.346,-36.2,3.0,-39.1,9.595,-2.8,14.1,-35.0,198.4,84.9,-20.9,0.0,45.13,12.84465,77.66381,,926.7762451,,600.0,,0 / 0,4731,2017-10-05 18:57:38:723
0.366,-12.193,2.111,0.706,-9.777,0.302,-0.346,-2.221,1.775,-36.2,3.0,-39.1,9.595,-3.2,14.2,-34.9,224.0,85.5,-47.6,0.0,45.13,12.84465,77.66381,,926.7762451,,600.0,,0 / 0,4741,2017-10-05 18:57:38:733
-0.151,-9.374,2.714,0.872,-9.765,0.228,-1.02,0.541,2.442,7.6,-5.1,-61.3,9.595,-3.4,14.2,-34.7,224.0,85.5,-47.6,0.0,45.13,12.84465,77.66381,,926.7762451,,600.0,,0 / 0,4753,2017-10-05 18:57:38:745
-0.151,-9.374,2.714,0.872,-9.765,0.228,-1.02,0.541,2.442,7.6,-5.1,-61.3,9.595,-3.4,14.2,-34.7,224.0,85.5,-47.6,0.0,45.13,12.84465,77.66381,,926.7762451,,600.0,,0 / 0,4761,2017-10-05 18:57:38:753
-0.151,-9.374,2.714,0.872,-9.765,0.228,-1.02,0.541,2.442,7.6,-5.1,-61.3,9.595,-3.4,14.2,-34.7,224.0,85.5,-47.6,0.0,45.13,12.84465,77.66381,,926.7762451,,600.0,,0 / 0,4771,2017-10-05 18:57:38:763
1.068,-7.442,0.134,1.075,-9.742,0.325,-0.024,2.42,-0.193,26.2,-2.5,-58.1,9.595,-3.7,14.5,-34.5,251.0,84.7,-75.3,0.0,45.13,12.84465,77.66381,,926.7762451,,600.0,,0 / 0,4781,2017-10-05 18:57:38:773
1.068,-7.442,0.134,1.075,-9.742,0.325,-0.024,2.42,-0.193,26.2,-2.5,-58.1,9.595,-3.7,14.5,-34.5,251.0,84.7,-75.3,0.0,45.13,12.84465,77.66381,,926.7762451,,600.0,,0 / 0,4791,2017-10-05 18:57:38:783
2.068,-8.621,-2.124,1.26,-9.71,0.538,0.775,1.228,-2.628,25.5,-4.4,-54.6,9.595,-3.9,14.3,-34.4,251.0,84.7,-75.3,0.0,45.13,12.84465,77.66381,,926.7762451,,600.0,,0 / 0,4801,2017-10-05 18:57:38:793
2.068,-8.621,-2.124,1.26,-9.71,0.538,0.775,1.228,-2.628,-1.8,-4.3,-56.3,9.595,-3.9,14.3,-34.4,251.0,84.7,-75.3,0.0,45.13,12.84465,77.66381,,926.7762451,,600.0,,0 / 0,4811,2017-10-05 18:57:38:803
2.332,-8.414,-3.138,1.452,-9.675,0.67,0.843,1.397,-3.758,-1.8,-4.3,-56.3,9.595,-4.3,14.2,-34.2,243.3,82.0,-66.9,0.0,45.13,12.84465,77.66381,,926.7762451,,600.0,,0 / 0,4821,2017-10-05 18:57:38:813
2.332,-8.414,-3.138,1.452,-9.675,0.67,0.843,1.397,-3.758,-31.0,16.1,-66.3,9.595,-4.3,14.2,-34.2,243.3,82.0,-66.9,0.0,45.13,12.84465,77.66381,,926.7762451,,600.0,,0 / 0,4831,2017-10-05 18:57:38:823
3.033,-8.782,-2.388,1.673,-9.647,0.555,1.312,1.006,-2.905,-54.6,43.5,-77.6,9.595,-4.6,14.1,-33.8,243.3,82.0,-66.9,0.0,47.68,12.84465,77.66381,,926.7762451,,600.0,,0 / 0,4841,2017-10-05 18:57:38:833
3.033,-8.782,-2.388,1.673,-9.647,0.555,1.312,1.006,-2.905,-54.6,43.5,-77.6,9.595,-4.6,14.1,-33.8,243.3,82.0,-66.9,0.0,47.68,12.84465,77.66381,,926.7762451,,600.0,,0 / 0,4852,2017-10-05 18:57:38:844
5.032,-11.406,-1.951,1.968,-9.605,0.198,2.983,-1.618,-2.117,-70.2,56.3,-105.0,9.595,-4.8,14.0,-33.5,260.8,78.4,-84.3,0.0,47.68,12.84465,77.66381,,926.7762451,,600.0,,0 / 0,4861,2017-10-05 18:57:38:853
5.032,-11.406,-1.951,1.968,-9.605,0.198,2.983,-1.618,-2.117,-70.2,56.3,-105.0,9.595,-4.8,14.0,-33.5,260.8,78.4,-84.3,0.0,47.68,12.84465,77.66381,,926.7762451,,600.0,,0 / 0,4871,2017-10-05 18:57:38:863
1.616,-12.328,-0.27,2.299,-9.532,-0.146,-0.709,-2.598,-0.12,-70.2,56.3,-105.0,9.595,-5.0,14.2,-33.5,260.8,78.4,-84.3,0.0,47.68,12.84465,77.66381,,926.7762451,,600.0,,0 / 0,4881,2017-10-05 18:57:38:873
1.616,-12.328,-0.27,2.299,-9.532,-0.146,-0.709,-2.598,-0.12,-77.5,48.8,-127.0,9.595,-5.0,14.2,-33.5,260.8,78.4,-84.3,0.0,47.68,12.84465,77.66381,,926.7762451,,600.0,,0 / 0,4891,2017-10-05 18:57:38:883
-0.798,-13.099,2.027,2.737,-9.403,-0.514,-3.522,-3.486,2.509,-68.9,14.1,-133.1,9.595,-5.2,13.9,-33.5,270.9,76.4,-93.6,0.0,47.68,12.84465,77.66381,,926.7762451,,600.0,,0 / 0,4902,2017-10-05 18:57:38:894
-0.798,-13.099,2.027,2.737,-9.403,-0.514,-3.522,-3.486,2.509,-38.2,-59.7,-116.6,9.595,-5.2,13.9,-33.5,270.9,76.4,-93.6,0.0,47.68,12.84465,77.66381,,926.7762451,,600.0,,0 / 0,4911,2017-10-05 18:57:38:903
-2.512,-12.051,3.342,3.061,-9.285,-0.764,-5.532,-2.572,4.052,-38.2,-59.7,-116.6,9.595,-5.5,14.1,-33.4,270.9,76.4,-93.6,0.0,47.68,12.84465,77.66381,,926.7762451,,600.0,,0 / 0,4921,2017-10-05 18:57:38:913
-2.512,-12.051,3.342,3.061,-9.285,-0.764,-5.532,-2.572,4.052,-7.3,-97.5,-98.1,9.595,-5.5,14.1,-33.4,270.9,76.4,-93.6,0.0,47.68,12.84465,77.66381,,926.7762451,,600.0,,0 / 0,4931,2017-10-05 18:57:38:923
1.355,-12.809,5.01,3.42,-9.146,-0.909,-2.087,-3.458,5.838,51.8,-135.1,-133.3,9.595,-5.7,14.1,-33.4,281.1,71.2,-104.0,0.0,47.68,12.84465,77.66381,,926.7762451,,600.0,,0 / 0,4941,2017-10-05 18:57:38:933
1.355,-12.809,5.01,3.42,-9.146,-0.909,-2.087,-3.458,5.838,51.8,-135.1,-133.3,9.595,-5.7,14.1,-33.4,281.1,71.2,-104.0,0.0,47.68,12.84465,77.66381,,926.7762451,,600.0,,0 / 0,4952,2017-10-05 18:57:38:944
9.226,-13.291,9.488,3.967,-8.948,-0.601,5.11,-4.13,9.937,152.9,-121.0,-226.6,9.595,-6.2,14.3,-32.7,281.1,71.2,-104.0,0.0,47.68,12.84465,77.66381,,926.7762451,,600.0,,0 / 0,4962,2017-10-05 18:57:38:954
9.226,-13.291,9.488,3.967,-8.948,-0.601,5.11,-4.13,9.937,152.9,-121.0,-226.6,9.595,-6.2,14.3,-32.7,281.1,71.2,-104.0,0.0,47.68,12.84465,77.66381,,926.7762451,,600.0,,0 / 0,4971,2017-10-05 18:57:38:963
2.815,-12.422,-4.987,4.568,-8.677,-0.091,-1.798,-3.545,-4.816,186.1,-5.5,-281.2,9.595,-6.5,14.5,-32.4,277.3,65.8,-98.6,0.0,47.68,12.84465,77.66381,,926.7762451,,600.0,,0 / 0,4982,2017-10-05 18:57:38:974
2.815,-12.422,-4.987,4.568,-8.677,-0.091,-1.798,-3.545,-4.816,131.4,126.3,-225.4,9.595,-6.5,14.5,-32.4,277.3,65.8,-98.6,0.0,47.68,12.84465,77.66381,,926.7762451,,600.0,,0 / 0,4991,2017-10-05 18:57:38:983
-9.391,-10.646,-11.301,5.242,-8.259,0.698,-14.482,-2.216,-11.818,131.4,126.3,-225.4,9.595,-7.3,14.4,-32.0,277.3,65.8,-98.6,0.0,47.68,12.84465,77.66381,,926.7762451,,600.0,,0 / 0,5002,2017-10-05 18:57:38:994
-9.391,-10.646,-11.301,5.242,-8.259,0.698,-14.482,-2.216,-11.818,29.0,73.2,-88.1,8.529,-7.3,14.4,-32.0,277.3,65.8,-98.6,0.0,47.68,12.84465,77.66381,,926.7762451,,600.0,,0 / 0,5010,2017-10-05 18:57:39:002
-11.324,-9.781,-9.505,5.453,-8.046,1.302,-16.595,-1.578,-10.654,29.0,73.2,-88.1,8.529,-8.0,14.0,-31.9,265.0,57.4,-82.4,0.0,47.68,12.84465,77.66381,,926.7762451,,600.0,,0 / 0,5022,2017-10-05 18:57:39:014
-11.324,-9.781,-9.505,5.453,-8.046,1.302,-16.595,-1.578,-10.654,-36.5,-44.6,10.6,8.529,-8.0,14.0,-31.9,265.0,57.4,-82.4,0.0,47.68,12.84465,77.66381,,926.7762451,,600.0,,0 / 0,5031,2017-10-05 18:57:39:023
6.027,-5.094,0.189,5.754,-7.882,0.965,0.176,2.87,-0.78,-36.5,-44.6,10.6,8.529,-8.9,13.1,-31.6,265.0,57.4,-82.4,0.0,47.68,12.84465,77.66381,,926.7762451,,600.0,,0 / 0,5042,2017-10-05 18:57:39:034
6.027,-5.094,0.189,5.754,-7.882,0.965,0.176,2.87,-0.78,-45.5,-54.3,-22.5,8.529,-8.9,13.1,-31.6,265.0,57.4,-82.4,0.0,47.68,12.84465,77.66381,,926.7762451,,600.0,,0 / 0,5051,2017-10-05 18:57:39:043
18.589,-6.658,3.836,5.938,-7.784,0.563,12.353,1.233,3.211,-45.5,-54.3,-22.5,8.529,-9.6,11.9,-31.3,260.4,53.5,-80.5,0.0,47.68,12.84465,77.66381,,926.7762451,,600.0,,0 / 0,5062,2017-10-05 18:57:39:054
18.589,-6.658,3.836,5.938,-7.784,0.563,12.353,1.233,3.211,-36.3,-33.0,-96.6,8.529,-9.6,11.9,-31.3,260.4,53.5,-80.5,0.0,47.68,12.84465,77.66381,,926.7762451,,600.0,,0 / 0,5071,2017-10-05 18:57:39:063
-1.838,-9.158,1.154,6.224,-7.578,-0.069,-8.032,-1.432,1.205,-39.5,-7.6,-97.3,8.529,-10.1,11.0,-31.3,260.4,53.5,-80.5,0.0,47.68,12.84465,77.66381,,926.7762451,,600.0,,0 / 0,5082,2017-10-05 18:57:39:074
-1.838,-9.158,1.154,6.224,-7.578,-0.069,-8.032,-1.432,1.205,-39.5,-7.6,-97.3,8.529,-10.1,11.0,-31.3,260.4,53.5,-80.5,0.0,47.68,12.84465,77.66381,,926.7762451,,600.0,,0 / 0,5092,2017-10-05 18:57:39:084
-3.308,-10.251,2.165,6.304,-7.509,-0.206,-9.559,-2.577,2.336,-35.9,-13.1,-38.8,8.529,-10.7,9.8,-31.1,266.5,50.6,-90.6,0.0,47.68,12.84465,77.66381,,926.7762451,,600.0,,0 / 0,5102,2017-10-05 18:57:39:094
-3.308,-10.251,2.165,6.304,-7.509,-0.206,-9.559,-2.577,2.336,-22.1,-26.2,17.8,8.529,-10.7,9.8,-31.1,266.5,50.6,-90.6,0.0,47.68,12.84465,77.66381,,926.7762451,,600.0,,0 / 0,5112,2017-10-05 18:57:39:104
0.05,-8.391,1.888,6.407,-7.42,-0.266,-6.357,-0.837,2.124,-22.1,-26.2,17.8,8.529,-11.5,8.7,-31.6,266.5,50.6,-90.6,0.0,47.68,12.84465,77.66381,,926.7762451,,600.0,,0 / 0,5121,2017-10-05 18:57:39:113
0.769,-6.748,0.407,6.32,-7.494,-0.259,-5.564,0.854,0.66,-16.4,-6.9,66.3,8.529,-11.9,7.6,-31.6,266.5,50.6,-90.6,0.0,47.68,12.84465,77.66381,,926.7762451,,600.0,,0 / 0,5132,2017-10-05 18:57:39:124
0.769,-6.748,0.407,6.32,-7.494,-0.259,-5.564,0.854,0.66,-17.3,9.6,107.0,8.529,-11.9,7.6,-31.6,266.5,50.6,-90.6,0.0,47.68,12.84465,77.66381,,926.7762451,,600.0,,0 / 0,5141,2017-10-05 18:57:39:133
1.277,-6.475,-0.166,6.232,-7.568,-0.237,-4.975,1.197,0.074,-17.3,9.6,107.0,8.529,-12.0,6.8,-31.6,263.2,50.5,-92.2,0.0,47.68,12.84465,77.66381,,926.7762451,,600.0,,0 / 0,5151,2017-10-05 18:57:39:143
1.277,-6.475,-0.166,6.09,-7.684,-0.191,-4.833,1.313,0.027,-17.3,9.6,107.0,8.529,-12.0,6.8,-31.6,263.2,50.5,-92.2,0.0,48.29,12.84465,77.66381,,926.7762451,,600.0,,0 / 0,5162,2017-10-05 18:57:39:154
0.266,-6.634,0.158,6.09,-7.684,-0.191,-4.833,1.313,0.027,-17.3,9.6,107.0,8.529,-12.1,6.3,-31.8,263.2,50.5,-92.2,0.0,48.29,12.84465,77.66381,,926.7762451,,600.0,,0 / 0,5171,2017-10-05 18:57:39:163
0.266,-6.634,0.158,5.686,-7.987,-0.224,-10.312,2.753,4.81,-8.7,-64.1,227.1,8.529,-12.1,6.3,-31.8,263.2,50.5,-92.2,0.0,48.29,12.84465,77.66381,,926.7762451,,600.0,,0 / 0,5181,2017-10-05 18:57:39:173
-4.701,-5.319,4.661,5.363,-8.206,-0.284,-9.989,2.972,4.87,-8.7,-64.1,227.1,8.529,-12.1,6.4,-31.9,260.8,54.5,-92.3,0.0,48.29,12.84465,77.66381,,926.7762451,,600.0,,0 / 0,5192,2017-10-05 18:57:39:184
-4.701,-5.319,4.661,5.363,-8.206,-0.284,-9.989,2.972,4.87,24.3,-67.3,309.2,8.529,-12.1,6.4,-31.9,260.8,54.5,-92.3,0.0,48.29,12.84465,77.66381,,926.7762451,,600.0,,0 / 0,5202,2017-10-05 18:57:39:194
-7.184,-8.162,2.074,4.689,-8.606,-0.337,-11.758,0.576,2.378,24.3,-67.3,309.2,8.529,-12.7,7.1,-31.6,260.8,54.5,-92.3,0.0,48.29,12.84465,77.66381,,926.7762451,,600.0,,0 / 0,5212,2017-10-05 18:57:39:204
-7.184,-8.162,2.074,4.689,-8.606,-0.337,-11.758,0.576,2.378,38.7,30.6,352.8,8.529,-12.7,7.1,-31.6,260.8,54.5,-92.3,0.0,48.29,12.84465,77.66381,,926.7762451,,600.0,,0 / 0,5222,2017-10-05 18:57:39:214
5.455,-14.557,-0.389,3.642,-9.105,-0.102,1.725,-5.218,-0.28,37.6,112.0,326.4,8.529,-13.0,7.4,-31.4,254.6,68.2,-91.6,0.0,48.29,12.84465,77.66381,,926.7762451,,600.0,,0 / 0,5231,2017-10-05 18:57:39:223
5.455,-14.557,-0.389,3.642,-9.105,-0.102,1.725,-5.218,-0.28,37.6,112.0,326.4,8.529,-13.0,7.4,-31.4,254.6,68.2,-91.6,0.0,48.29,12.84465,77.66381,,926.7762451,,600.0,,0 / 0,5242,2017-10-05 18:57:39:234
10.803,-13.046,1.673,2.727,-9.42,0.074,7.903,-3.417,1.572,28.1,66.7,253.0,8.529,-13.0,8.3,-31.6,254.6,68.2,-91.6,0.0,48.29,12.84465,77.66381,,926.7762451,,600.0,,0 / 0,5252,2017-10-05 18:57:39:244
10.803,-13.046,1.673,2.727,-9.42,0.074,7.903,-3.417,1.572,28.1,66.7,253.0,8.529,-13.0,8.3,-31.6,254.6,68.2,-91.6,0.0,48.29,12.84465,77.66381,,926.7762451,,600.0,,0 / 0,5262,2017-10-05 18:57:39:254
12.626,-13.083,1.703,1.938,-9.609,0.291,10.486,-3.264,1.384,36.1,-15.8,145.9,8.529,-12.2,9.2,-31.4,252.2,73.8,-88.4,0.0,48.29,12.84465,77.66381,,926.7762451,,600.0,,0 / 0,5272,2017-10-05 18:57:39:264
12.626,-13.083,1.703,1.938,-9.609,0.291,10.486,-3.264,1.384,54.8,-41.1,39.8,8.529,-12.2,9.2,-31.4,252.2,73.8,-88.4,0.0,48.29,12.84465,77.66381,,926.7762451,,600.0,,0 / 0,5282,2017-10-05 18:57:39:274
10.306,-10.939,1.737,1.81,-9.629,0.428,8.331,-1.134,1.281,54.8,-41.1,39.8,8.529,-11.6,10.2,-31.3,252.2,73.8,-88.4,0.0,48.29,12.84465,77.66381,,926.7762451,,600.0,,0 / 0,5292,2017-10-05 18:57:39:284
10.306,-10.939,1.737,1.81,-9.629,0.428,8.331,-1.134,1.281,75.8,-49.6,-31.9,8.529,-11.6,10.2,-31.3,252.2,73.8,-88.4,0.0,48.29,12.84465,77.66381,,926.7762451,,600.0,,0 / 0,5301,2017-10-05 18:57:39:293
7.666,-9.171,3.657,1.563,-9.657,0.685,5.981,0.633,2.913,108.5,-65.8,-104.9,8.529,-10.9,11.0,-31.3,240.8,79.1,-76.7,0.0,48.29,12.84465,77.66381,,926.7762451,,600.0,,0 / 0,5311,2017-10-05 18:57:39:303
7.666,-9.171,3.657,1.563,-9.657,0.685,5.981,0.633,2.913,108.5,-65.8,-104.9,8.529,-10.9,11.0,-31.3,240.8,79.1,-76.7,0.0,48.29,12.84465,77.66381,,926.7762451,,600.0,,0 / 0,5321,2017-10-05 18:57:39:313
3.192,-9.34,-0.713,1.773,-9.591,1.017,1.368,0.402,-1.718,108.5,-65.8,-104.9,8.529,-10.2,11.8,-31.4,240.8,79.1,-76.7,0.0,48.29,12.84465,77.66381,,926.7762451,,600.0,,0 / 0,5331,2017-10-05 18:57:39:323
3.192,-9.34,-0.713,1.773,-9.591,1.017,1.368,0.402,-1.718,134.4,-25.7,-158.9,8.529,-10.2,11.8,-31.4,240.8,79.1,-76.7,0.0,48.29,12.84465,77.66381,,926.7762451,,600.0,,0 / 0,5341,2017-10-05 18:57:39:333
-4.856,-7.532,-6.731,2.266,-9.44,1.388,-7.044,2.028,-8.011,63.6,62.8,-142.4,6.397,-9.8,12.3,-31.4,226.1,78.0,-60.2,0.0,48.29,12.84465,77.66381,,926.7762451,,600.0,,0 / 0,5351,2017-10-05 18:57:39:343
-4.856,-7.532,-6.731,2.266,-9.44,1.388,-7.044,2.028,-8.011,63.6,62.8,-142.4,6.397,-9.8,12.3,-31.4,226.1,78.0,-60.2,0.0,48.29,12.84465,77.66381,,926.7762451,,600.0,,0 / 0,5362,2017-10-05 18:57:39:354
-2.549,-8.55,-2.545,2.651,-9.277,1.754,-5.159,0.864,-4.258,20.6,57.6,-134.8,6.397,-8.9,12.2,-31.5,226.1,78.0,-60.2,0.0,48.29,12.84465,77.66381,,926.7762451,,600.0,,0 / 0,5371,2017-10-05 18:57:39:363
-2.549,-8.55,-2.545,2.651,-9.277,1.754,-5.159,0.864,-4.258,20.6,50.0,-131.7,6.397,-8.9,12.2,-31.5,226.1,78.0,-60.2,0.0,48.29,12.84465,77.66381,,926.7762451,,600.0,,0 / 0,5382,2017-10-05 18:57:39:374
-0.19,-8.439,0.15,3.057,-9.133,1.85,-3.244,0.829,-1.703,9.0,50.0,-131.7,6.397,-8.4,11.8,-31.7,229.3,71.1,-56.5,0.0,48.29,12.84465,77.66381,,926.7762451,,600.0,,0 / 0,5391,2017-10-05 18:57:39:383
-0.19,-8.439,0.15,3.057,-9.133,1.85,-3.244,0.829,-1.703,-4.7,74.6,-111.0,6.397,-8.4,11.8,-31.7,229.3,71.1,-56.5,0.0,48.29,12.84465,77.66381,,926.7762451,,600.0,,0 / 0,5402,2017-10-05 18:57:39:394
-1.77,-8.7,-0.183,3.381,-9.062,1.617,-5.123,0.502,-1.797,-4.7,74.6,-111.0,6.397,-8.1,11.0,-31.9,229.3,71.1,-56.5,0.0,48.29,12.84465,77.66381,,926.7762451,,600.0,,0 / 0,5411,2017-10-05 18:57:39:403
-1.77,-8.7,-0.183,3.381,-9.062,1.617,-5.123,0.502,-1.797,-18.7,101.3,-71.2,6.397,-8.1,11.0,-31.9,229.3,71.1,-56.5,0.0,48.29,12.84465,77.66381,,926.7762451,,600.0,,0 / 0,5422,2017-10-05 18:57:39:414
-4.051,-10.005,-0.173,3.516,-9.027,1.526,-7.502,-0.817,-1.696,-39.7,91.7,-19.9,6.397,-8.0,10.2,-32.1,238.4,67.5,-64.4,0.0,48.29,12.84465,77.66381,,926.7762451,,600.0,,0 / 0,5431,2017-10-05 18:57:39:423
-4.051,-10.005,-0.173,3.516,-9.027,1.526,-7.502,-0.817,-1.696,-39.7,91.7,-19.9,6.397,-8.0,10.2,-32.1,238.4,67.5,-64.4,0.0,48.29,12.84465,77.66381,,926.7762451,,600.0,,0 / 0,5441,2017-10-05 18:57:39:433
-1.75,-10.382,3.346,3.614,-9.004,1.427,-5.336,-1.212,1.865,-47.7,44.1,31.1,6.397,-8.1,9.4,-32.9,238.4,67.5,-64.4,0.0,48.29,12.84465,77.66381,,926.7762451,,600.0,,0 / 0,5451,2017-10-05 18:57:39:443
-1.75,-10.382,3.346,3.614,-9.004,1.427,-5.336,-1.212,1.865,-30.2,-7.2,58.2,6.397,-8.1,9.4,-32.9,238.4,67.5,-64.4,0.0,48.29,12.84465,77.66381,,926.7762451,,600.0,,0 / 0,5461,2017-10-05 18:57:39:453
3.016,-10.362,5.498,3.464,-9.085,1.281,-0.496,-1.111,4.128,-30.2,-7.2,58.2,6.397,-7.9,8.5,-33.5,242.6,66.7,-68.4,0.0,48.29,12.84465,77.66381,,926.7762451,,600.0,,0 / 0,5471,2017-10-05 18:57:39:463
3.016,-10.362,5.498,3.464,-9.085,1.281,-0.496,-1.111,4.128,-30.2,-7.2,58.2,6.397,-7.9,8.5,-33.5,242.6,66.7,-68.4,0.0,48.29,12.84465,77.66381,,926.7762451,,600.0,,0 / 0,5481,2017-10-05 18:57:39:473
6.907,-9.251,6.176,3.39,-9.116,1.256,3.406,0.013,4.821,3.5,-4.4,47.7,6.397,-7.6,7.8,-33.7,242.6,66.7,-68.4,0.0,46.37,12.84465,77.66381,,926.7762451,,600.0,,0 / 0,5491,2017-10-05 18:57:39:483
6.907,-9.251,6.176,3.39,-9.116,1.256,3.406,0.013,4.821,30.2,60.0,6.9,6.397,-7.6,7.8,-33.7,242.6,66.7,-68.4,0.0,46.37,12.84465,77.66381,,926.7762451,,600.0,,0 / 0,5501,2017-10-05 18:57:39:493
7.553,-8.301,3.911,3.265,-9.146,1.367,4.166,0.977,2.481,30.2,60.0,6.9,6.397,-7.4,7.6,-34.1,244.4,68.4,-69.7,0.0,46.37,12.84465,77.66381,,926.7762451,,600.0,,0 / 0,5511,2017-10-05 18:57:39:503
5.004,-7.666,1.885,3.282,-9.105,1.581,1.641,1.561,0.273,38.2,105.7,-32.8,8.529,-7.4,7.6,-34.1,244.4,68.4,-69.7,0.0,46.37,12.84465,77.66381,,926.7762451,,600.0,,0 / 0,5521,2017-10-05 18:57:39:513
5.004,-7.666,1.885,3.282,-9.105,1.581,1.641,1.561,0.273,38.2,105.7,-32.8,8.529,-7.4,7.6,-34.1,244.4,68.4,-69.7,0.0,46.37,12.84465,77.66381,,926.7762451,,600.0,,0 / 0,5532,2017-10-05 18:57:39:524
4.06,-8.006,1.463,3.298,-9.033,1.922,0.697,1.156,-0.483,37.1,114.3,-58.3,8.529,-7.1,7.3,-34.4,244.4,68.4,-69.7,0.0,46.37,12.84465,77.66381,,926.7762451,,600.0,,0 / 0,5541,2017-10-05 18:57:39:533
4.06,-8.006,1.463,3.298,-9.033,1.922,0.697,1.156,-0.483,42.6,81.2,-101.0,8.529,-7.1,7.3,-34.4,244.4,68.4,-69.7,0.0,46.37,12.84465,77.66381,,926.7762451,,600.0,,0 / 0,5551,2017-10-05 18:57:39:543
7.897,-11.003,4.703,3.548,-8.864,2.238,4.222,-1.962,2.389,87.6,48.3,-177.1,8.529,-6.8,7.3,-34.4,234.2,67.1,-59.8,0.0,46.37,12.84465,77.66381,,926.7762451,,600.0,,0 / 0,5561,2017-10-05 18:57:39:553
7.897,-11.003,4.703,3.548,-8.864,2.238,4.222,-1.962,2.389,87.6,48.3,-177.1,8.529,-6.8,7.3,-34.4,234.2,67.1,-59.8,0.0,46.37,12.84465,77.66381,,926.7762451,,600.0,,0 / 0,5572,2017-10-05 18:57:39:564
7.895,-13.175,7.694,3.938,-8.605,2.571,3.83,-4.358,4.999,87.6,48.3,-177.1,8.529,-5.8,7.3,-34.4,234.2,67.1,-59.8,0.0,46.37,12.84465,77.66381,,926.7762451,,600.0,,0 / 0,5581,2017-10-05 18:57:39:573
7.895,-13.175,7.694,3.938,-8.605,2.571,3.83,-4.358,4.999,131.2,46.8,-216.4,8.529,-5.8,7.3,-34.4,234.2,67.1,-59.8,0.0,46.37,12.84465,77.66381,,926.7762451,,600.0,,0 / 0,5591,2017-10-05 18:57:39:583
-7.131,-9.924,-3.27,4.313,-8.341,2.83,-11.329,-1.425,-6.047,93.7,-20.0,-166.2,8.529,-5.1,7.3,-34.9,237.2,61.3,-56.9,0.0,46.37,12.84465,77.66381,,926.7762451,,600.0,,0 / 0,5601,2017-10-05 18:57:39:593
-7.131,-9.924,-3.27,4.313,-8.341,2.83,-11.329,-1.425,-6.047,93.7,-20.0,-166.2,8.529,-5.1,7.3,-34.9,237.2,61.3,-56.9,0.0,46.37,12.84465,77.66381,,926.7762451,,600.0,,0 / 0,5612,2017-10-05 18:57:39:604
-5.072,-7.437,-1.22,4.693,-8.076,2.987,-9.684,0.759,-4.187,19.1,-40.9,-75.8,8.529,-4.3,6.8,-35.0,237.2,61.3,-56.9,0.0,46.37,12.84465,77.66381,,926.7762451,,600.0,,0 / 0,5621,2017-10-05 18:57:39:613
-5.072,-7.437,-1.22,4.693,-8.076,2.987,-9.684,0.759,-4.187,19.1,-40.9,-75.8,8.529,-4.3,6.8,-35.0,237.2,61.3,-56.9,0.0,46.37,12.84465,77.66381,,926.7762451,,600.0,,0 / 0,5631,2017-10-05 18:57:39:623
-0.3,-6.311,0.286,4.955,-7.843,3.178,-5.251,1.633,-2.896,-21.1,-25.9,2.0,8.529,-3.8,6.4,-35.0,241.5,55.4,-57.5,0.0,46.37,12.84465,77.66381,,926.7762451,,600.0,,0 / 0,5641,2017-10-05 18:57:39:633
-0.3,-6.311,0.286,4.955,-7.843,3.178,-5.251,1.633,-2.896,-51.5,6.1,76.2,8.529,-3.8,6.4,-35.0,241.5,55.4,-57.5,0.0,46.37,12.84465,77.66381,,926.7762451,,600.0,,0 / 0,5652,2017-10-05 18:57:39:644
-2.878,-6.217,-1.122,4.952,-7.887,3.072,-7.784,1.77,-4.176,-51.5,6.1,76.2,8.529,-3.2,5.5,-35.3,241.5,55.4,-57.5,0.0,46.37,12.84465,77.66381,,926.7762451,,600.0,,0 / 0,5661,2017-10-05 18:57:39:653
-2.878,-6.217,-1.122,4.952,-7.887,3.072,-7.784,1.77,-4.176,-95.1,39.7,162.0,8.529,-3.2,5.5,-35.3,241.5,55.4,-57.5,0.0,46.37,12.84465,77.66381,,926.7762451,,600.0,,0 / 0,5671,2017-10-05 18:57:39:663
-6.041,-8.374,-2.391,4.439,-8.291,2.778,-10.383,0.051,-5.131,-95.1,39.7,162.0,8.529,-2.8,4.9,-35.2,243.7,53.5,-58.2,0.0,46.37,12.84465,77.66381,,926.7762451,,600.0,,0 / 0,5682,2017-10-05 18:57:39:674
-6.041,-8.374,-2.391,4.439,-8.291,2.778,-10.383,0.051,-5.131,-139.1,54.8,235.4,5.33,-2.8,4.9,-35.2,243.7,53.5,-58.2,0.0,46.37,12.84465,77.66381,,926.7762451,,600.0,,0 / 0,5691,2017-10-05 18:57:39:683
2.03,-15.143,2.132,3.799,-8.736,2.328,-1.802,-6.164,-0.23,-167.7,34.4,261.9,5.33,-2.5,4.3,-35.3,243.7,53.5,-58.2,0.0,46.37,12.84465,77.66381,,926.7762451,,600.0,,0 / 0,5701,2017-10-05 18:57:39:693
2.03,-15.143,2.132,3.799,-8.736,2.328,-1.802,-6.164,-0.23,-167.7,34.4,261.9,5.33,-2.5,4.3,-35.3,243.7,53.5,-58.2,0.0,46.37,12.84465,77.66381,,926.7762451,,600.0,,0 / 0,5712,2017-10-05 18:57:39:704
5.863,-15.512,7.278,3.19,-9.095,1.808,2.578,-6.168,5.353,-167.7,34.4,261.9,5.33,-1.9,3.5,-35.6,241.0,63.0,-58.5,0.0,46.37,12.84465,77.66381,,926.7762451,,600.0,,0 / 0,5721,2017-10-05 18:57:39:713
5.863,-15.512,7.278,3.19,-9.095,1.808,2.578,-6.168,5.353,-153.2,-58.5,229.7,5.33,-1.9,3.5,-35.6,241.0,63.0,-58.5,0.0,46.37,12.84465,77.66381,,926.7762451,,600.0,,0 / 0,5732,2017-10-05 18:57:39:724
5.006,-12.571,8.312,2.58,-9.391,1.147,2.347,-2.978,7.031,-94.1,-160.1,177.1,5.33,-2.0,3.5,-35.7,241.0,63.0,-58.5,0.0,46.37,12.84465,77.66381,,926.7762451,,600.0,,0 / 0,5741,2017-10-05 18:57:39:733
5.006,-12.571,8.312,2.58,-9.391,1.147,2.347,-2.978,7.031,-42.5,-188.5,120.0,5.33,-2.0,3.5,-35.7,241.0,63.0,-58.5,0.0,46.37,12.84465,77.66381,,926.7762451,,600.0,,0 / 0,5751,2017-10-05 18:57:39:743
3.52,-10.197,4.651,2.051,-9.555,0.818,1.413,-0.478,3.758,-42.5,-188.5,120.0,5.33,-1.9,3.8,-35.6,245.5,73.3,-66.0,0.0,46.37,12.84465,77.66381,,926.7762451,,600.0,,0 / 0,5761,2017-10-05 18:57:39:753
3.52,-10.197,4.651,2.051,-9.555,0.818,1.413,-0.478,3.758,-36.0,-158.0,84.6,5.33,-1.9,3.8,-35.6,245.5,73.3,-66.0,0.0,46.37,12.84465,77.66381,,926.7762451,,600.0,,0 / 0,5771,2017-10-05 18:57:39:763
1.578,-10.272,1.268,1.647,-9.647,0.632,-0.095,-0.461,0.616,-36.0,-158.0,84.6,5.33,-1.8,4.6,-35.3,245.5,73.3,-66.0,0.0,46.37,12.84465,77.66381,,926.7762451,,600.0,,0 / 0,5781,2017-10-05 18:57:39:773
1.578,-10.272,1.268,1.647,-9.647,0.632,-0.095,-0.461,0.616,-44.0,-137.5,81.4,5.33,-1.8,4.6,-35.3,245.5,73.3,-66.0,0.0,46.37,12.84465,77.66381,,926.7762451,,600.0,,0 / 0,5791,2017-10-05 18:57:39:783
-0.869,-8.553,0.915,1.435,-9.677,0.678,-2.29,1.262,0.222,-45.9,-130.8,77.6,5.33,-2.1,5.6,-35.1,247.7,79.6,-69.0,0.0,46.37,12.84465,77.66381,,926.7762451,,600.0,,0 / 0,5801,2017-10-05 18:57:39:793
-0.869,-8.553,0.915,1.435,-9.677,0.678,-2.29,1.262,0.222,-45.9,-130.8,77.6,5.33,-2.1,5.6,-35.1,247.7,79.6,-69.0,0.0,48.38,12.84465,77.66381,,926.7762451,,600.0,,0 / 0,5811,2017-10-05 18:57:39:803
2.957,-7.003,0.429,1.196,-9.718,0.542,1.713,2.828,-0.119,-19.2,-78.1,72.1,5.33,-2.5,7.2,-34.8,247.7,79.6,-69.0,0.0,48.38,12.84465,77.66381,,926.7762451,,600.0,,0 / 0,5822,2017-10-05 18:57:39:814
2.957,-7.003,0.429,1.196,-9.718,0.542,1.713,2.828,-0.119,5.9,-3.4,51.3,5.33,-2.5,7.2,-34.8,247.7,79.6,-69.0,0.0,48.38,12.84465,77.66381,,926.7762451,,600.0,,0 / 0,5831,2017-10-05 18:57:39:823
5.57,-6.466,-1.539,0.99,-9.746,0.464,4.491,3.384,-1.978,5.9,-3.4,51.3,5.33,-2.8,8.4,-34.3,242.4,82.3,-65.6,0.0,48.38,12.84465,77.66381,,926.7762451,,600.0,,0 / 0,5842,2017-10-05 18:57:39:834
5.57,-6.466,-1.539,0.99,-9.746,0.464,4.491,3.384,-1.978,-6.9,24.6,-0.1,5.33,-2.8,8.4,-34.3,242.4,82.3,-65.6,0.0,48.38,12.84465,77.66381,,926.7762451,,600.0,,0 / 0,5851,2017-10-05 18:57:39:843
4.722,-7.888,-1.641,0.987,-9.745,0.47,3.659,1.985,-2.085,-6.9,24.6,-0.1,9.595,-3.3,9.6,-33.8,242.4,82.3,-65.6,0.0,48.38,12.84465,77.66381,,926.7762451,,600.0,,0 / 0,5861,2017-10-05 18:57:39:853
4.722,-7.888,-1.641,0.987,-9.745,0.47,3.659,1.985,-2.085,-14.2,25.4,-34.0,9.595,-3.3,9.6,-33.8,242.4,82.3,-65.6,0.0,48.38,12.84465,77.66381,,926.7762451,,600.0,,0 / 0,5871,2017-10-05 18:57:39:863
0.86,-8.139,-0.776,0.984,-9.749,0.391,-0.138,1.741,-1.155,-16.7,22.0,-52.1,9.595,-4.1,11.3,-33.5,239.6,83.6,-64.5,0.0,48.38,12.84465,77.66381,,926.7762451,,600.0,,0 / 0,5881,2017-10-05 18:57:39:873
0.35,-9.062,-0.191,1.071,-9.741,0.367,-0.726,0.824,-0.556,-16.7,22.0,-52.1,9.595,-4.8,12.4,-32.9,239.6,83.6,-64.5,0.0,48.38,12.84465,77.66381,,926.7762451,,600.0,,0 / 0,5892,2017-10-05 18:57:39:884
0.35,-9.062,-0.191,1.071,-9.741,0.367,-0.726,0.824,-0.556,-23.6,21.5,-64.9,9.595,-4.8,12.4,-32.9,239.6,83.6,-64.5,0.0,48.38,12.84465,77.66381,,926.7762451,,600.0,,0 / 0,5901,2017-10-05 18:57:39:893
-0.05,-10.222,0.423,1.179,-9.733,0.222,-1.229,-0.325,0.194,-23.6,21.5,-64.9,9.595,-5.5,12.8,-32.0,239.6,83.6,-64.5,0.0,48.38,12.84465,77.66381,,926.7762451,,600.0,,0 / 0,5911,2017-10-05 18:57:39:903
-1.068,-9.616,1.098,1.304,-9.719,0.147,-2.354,0.257,0.934,-16.3,12.0,-73.2,9.595,-5.5,12.8,-32.0,253.3,83.0,-79.3,0.0,48.38,12.84465,77.66381,,926.7762451,,600.0,,0 / 0,5922,2017-10-05 18:57:39:914
-1.068,-9.616,1.098,1.304,-9.719,0.147,-2.354,0.257,0.934,-19.7,44.6,-72.4,9.595,-5.5,12.8,-32.0,253.3,83.0,-79.3,0.0,48.38,12.84465,77.66381,,926.7762451,,600.0,,0 / 0,5932,2017-10-05 18:57:39:924
-1.365,-9.418,-0.832,1.513,-9.689,0.083,-2.856,0.422,-0.903,-19.7,44.6,-72.4,9.595,-6.1,13.2,-31.6,253.3,83.0,-79.3,0.0,48.38,12.84465,77.66381,,926.7762451,,600.0,,0 / 0,5941,2017-10-05 18:57:39:933
-1.365,-9.418,-0.832,1.513,-9.689,0.083,-2.856,0.422,-0.903,-19.7,44.6,-72.4,9.595,-6.1,13.2,-31.6,253.3,83.0,-79.3,0.0,48.38,12.84465,77.66381,,926.7762451,,600.0,,0 / 0,5950,2017-10-05 18:57:39:942
-0.621,-9.055,-0.712,1.742,-9.65,0.066,-2.353,0.741,-0.766,-20.5,82.4,-62.9,9.595,-6.4,13.9,-31.1,259.9,81.1,-86.8,0.0,48.38,12.84465,77.66381,,926.7762451,,600.0,,0 / 0,5962,2017-10-05 18:57:39:954
-0.621,-9.055,-0.712,1.742,-9.65,0.066,-2.353,0.741,-0.766,-20.5,82.4,-62.9,9.595,-6.4,13.9,-31.1,259.9,81.1,-86.8,0.0,48.38,12.84465,77.66381,,926.7762451,,600.0,,0 / 0,5970,2017-10-05 18:57:39:962
1.384,-10.313,-0.427,1.942,-9.612,0.108,-0.581,-0.536,-0.528,-12.8,-19.1,-87.6,9.595,-6.8,14.0,-31.0,259.9,81.1,-86.8,0.0,48.38,12.84465,77.66381,,926.7762451,,600.0,,0 / 0,5983,2017-10-05 18:57:39:975
1.384,-10.313,-0.427,1.942,-9.612,0.108,-0.581,-0.536,-0.528,-12.8,-19.1,-87.6,9.595,-6.8,14.0,-31.0,259.9,81.1,-86.8,0.0,48.38,12.84465,77.66381,,926.7762451,,600.0,,0 / 0,5992,2017-10-05 18:57:39:984
1.384,-10.313,-0.427,1.942,-9.612,0.108,-0.581,-0.536,-0.528,-12.8,-19.1,-87.6,9.595,-6.8,14.0,-31.0,259.9,81.1,-86.8,0.0,48.38,12.84465,77.66381,,926.7762451,,600.0,,0 / 0,6001,2017-10-05 18:57:39:993
4.417,-11.367,1.109,2.257,-9.543,-0.005,2.089,-1.641,1.096,-0.4,-59.3,-128.7,9.595,-6.8,14.0,-30.8,259.3,78.6,-86.8,0.0,48.38,12.84465,77.66381,,926.7762451,,600.0,,0 / 0,6011,2017-10-05 18:57:40:003
6.097,-10.903,0.083,2.623,-9.449,-0.036,3.377,-1.278,0.118,-0.4,-59.3,-128.7,9.595,-6.5,14.2,-30.7,259.3,78.6,-86.8,0.0,48.38,12.84465,77.66381,,926.7762451,,600.0,,0 / 0,6022,2017-10-05 18:57:40:014
6.097,-10.903,0.083,2.623,-9.449,-0.036,3.377,-1.278,0.118,4.7,-6.2,-159.6,7.463,-6.5,14.2,-30.7,259.3,78.6,-86.8,0.0,48.38,12.84465,77.66381,,926.7762451,,600.0,,0 / 0,6032,2017-10-05 18:57:40:024
3.787,-10.301,-0.588,3.19,-9.273,-0.03,0.536,-0.862,-0.549,5.9,27.4,-187.3,7.463,-6.3,14.3,-30.5,268.4,71.0,-90.5,0.0,48.38,12.84465,77.66381,,926.7762451,,600.0,,0 / 0,6043,2017-10-05 18:57:40:035
3.787,-10.301,-0.588,3.19,-9.273,-0.03,0.536,-0.862,-0.549,25.1,2.0,-174.0,7.463,-6.3,14.3,-30.5,268.4,71.0,-90.5,0.0,48.38,12.84465,77.66381,,926.7762451,,600.0,,0 / 0,6052,2017-10-05 18:57:40:044
0.82,-9.896,0.091,3.675,-9.092,0.019,-2.867,-0.645,0.07,25.1,2.0,-174.0,7.463,-6.4,14.0,-30.6,268.4,71.0,-90.5,0.0,48.38,12.84465,77.66381,,926.7762451,,600.0,,0 / 0,6061,2017-10-05 18:57:40:053
0.82,-9.896,0.091,3.675,-9.092,0.019,-2.867,-0.645,0.07,-4.0,2.7,-139.1,7.463,-6.4,14.0,-30.6,268.4,71.0,-90.5,0.0,48.38,12.84465,77.66381,,926.7762451,,600.0,,0 / 0,6072,2017-10-05 18:57:40:064
0.82,-9.896,0.091,3.675,-9.092,0.019,-2.867,-0.645,0.07,-4.0,2.7,-139.1,7.463,-6.4,14.0,-30.6,268.4,71.0,-90.5,0.0,48.38,12.84465,77.66381,,926.7762451,,600.0,,0 / 0,6081,2017-10-05 18:57:40:073
-0.53,-8.801,-2.64,4.186,-8.868,0.043,-4.708,0.208,-2.64,-4.0,2.7,-139.1,7.463,-6.7,14.0,-31.0,267.4,68.0,-89.7,0.0,48.38,12.84465,77.66381,,926.7762451,,600.0,,0 / 0,6091,2017-10-05 18:57:40:083
-0.53,-8.801,-2.64,4.186,-8.868,0.043,-4.708,0.208,-2.64,-33.0,53.5,-87.7,7.463,-6.7,13.6,-31.1,267.4,68.0,-89.7,0.0,48.38,12.84465,77.66381,,926.7762451,,600.0,,0 / 0,6101,2017-10-05 18:57:40:093
-3.482,-8.91,1.515,4.456,-8.736,-0.006,-7.882,-0.031,1.497,-20.8,37.1,-29.8,7.463,-6.9,13.6,-31.1,267.4,68.0,-89.7,0.0,48.38,12.84465,77.66381,,926.7762451,,600.0,,0 / 0,6111,2017-10-05 18:57:40:103
-2.373,-9.233,2.306,4.547,-8.688,-0.107,-6.882,-0.397,2.376,-20.8,37.1,-29.8,7.463,-7.3,12.9,-31.2,270.9,62.4,-91.3,0.0,48.38,12.84465,77.66381,,926.7762451,,600.0,,0 / 0,6121,2017-10-05 18:57:40:113
-2.373,-9.233,2.306,4.547,-8.688,-0.107,-6.882,-0.397,2.376,1.0,40.4,22.8,7.463,-7.3,12.9,-31.2,270.9,62.4,-91.3,0.0,48.38,12.84465,77.66381,,926.7762451,,600.0,,0 / 0,6131,2017-10-05 18:57:40:123
-1.07,-10.073,0.731,4.584,-8.669,-0.092,-5.638,-1.242,0.811,1.0,40.4,22.8,7.463,-7.6,12.7,-31.4,270.9,62.4,-91.3,0.0,46.63,12.84465,77.66381,,926.7762451,,600.0,,0 / 0,6141,2017-10-05 18:57:40:133
-1.07,-10.073,0.731,4.584,-8.669,-0.092,-5.638,-1.242,0.811,8.9,42.5,65.4,7.463,-7.6,12.7,-31.4,270.9,62.4,-91.3,0.0,46.63,12.84465,77.66381,,926.7762451,,600.0,,0 / 0,6152,2017-10-05 18:57:40:144
