ACCELEROMETER X (m/s²),ACCELEROMETER Y (m/s²),ACCELEROMETER Z (m/s²),GRAVITY X (m/s²),GRAVITY Y (m/s²),GRAVITY Z (m/s²),LINEAR ACCELERATION X (m/s²),LINEAR ACCELERATION Y (m/s²),LINEAR ACCELERATION Z (m/s²),GYROSCOPE X (°/s),GYROSCOPE Y (°/s),GYROSCOPE Z (°/s),LIGHT (lux),MAGNETIC FIELD X (μT),MAGNETIC FIELD Y (μT),MAGNETIC FIELD Z (μT),ORIENTATION Z (azimuth °),ORIENTATION X (pitch °),ORIENTATION Y (roll °),PROXIMITY (m),SOUND LEVEL (dB),LOCATION Latitude : ,LOCATION Longitude : ,LOCATION Altitude ( m),LOCATION Altitude-google ( m),LOCATION Speed ( Kmh),LOCATION Accuracy ( m),LOCATION ORIENTATION (°),Satellites in range,Time since start in ms ,YYYY-MO-DD HH-MI-SS_SSS
-1.74,5.874,9.524,-0.756,4.822,8.506,-0.956,0.957,0.865,-18.8,-37.8,21.1,0.0,-20.7,20.0,-33.1,37.1,-29.6,6.3,5.0,25.49,12.84155,77.6525,,936.2956543,,110.0,,0 / 0,11,2017-10-05 18:59:05:065
-0.641,5.488,9.588,-0.739,4.827,8.504,0.108,0.573,0.93,-3.1,-19.7,32.7,0.0,-20.8,20.0,-32.9,37.1,-29.6,6.3,5.0,25.49,12.84155,77.6525,,936.2956543,,110.0,,0 / 0,21,2017-10-05 18:59:05:075
-0.209,5.15,9.761,-0.673,4.884,8.477,0.467,0.183,1.127,9.7,-1.0,34.3,1.066,-20.7,20.0,-32.7,36.0,-29.5,5.0,5.0,25.49,12.84155,77.6525,,936.2956543,,110.0,,0 / 0,31,2017-10-05 18:59:05:085
-0.209,5.15,9.761,-0.673,4.884,8.477,0.467,0.183,1.127,9.7,-1.0,34.3,1.066,-20.7,20.0,-32.7,36.0,-29.5,5.0,5.0,25.49,12.84155,77.6525,,936.2956543,,110.0,,0 / 0,41,2017-10-05 18:59:05:095
-0.177,4.989,9.847,-0.632,4.921,8.459,0.458,-0.013,1.23,19.9,5.7,28.7,1.066,-20.6,20.1,-32.9,36.0,-29.5,5.0,5.0,25.49,12.84155,77.6525,,936.2956543,,110.0,,0 / 0,51,2017-10-05 18:59:05:105
-0.177,4.989,9.847,-0.632,4.921,8.459,0.458,-0.013,1.23,24.2,6.7,26.6,1.066,-20.6,20.1,-32.9,36.0,-29.5,5.0,5.0,25.49,12.84155,77.6525,,936.2956543,,110.0,,0 / 0,61,2017-10-05 18:59:05:115
-0.877,5.23,8.913,-0.601,4.977,8.429,-0.262,0.169,0.341,24.2,6.7,26.6,1.066,-20.8,20.4,-32.9,35.3,-30.1,4.3,5.0,25.49,12.84155,77.6525,,936.2956543,,110.0,,0 / 0,70,2017-10-05 18:59:05:124
-0.877,5.23,8.913,-0.601,4.977,8.429,-0.262,0.169,0.341,21.1,14.1,25.3,1.066,-20.8,20.4,-32.9,35.3,-30.1,4.3,5.0,25.49,12.84155,77.6525,,936.2956543,,110.0,,0 / 0,81,2017-10-05 18:59:05:135
-0.988,5.314,8.671,-0.587,5.022,8.403,-0.385,0.207,0.129,21.1,14.1,25.3,1.066,-20.8,20.4,-33.3,35.3,-30.1,4.3,5.0,25.49,12.84155,77.6525,,936.2956543,,110.0,,0 / 0,91,2017-10-05 18:59:05:145
-0.988,5.314,8.671,-0.587,5.022,8.403,-0.385,0.207,0.129,18.3,12.4,26.5,1.066,-20.8,20.4,-33.3,35.3,-30.1,4.3,5.0,25.49,12.84155,77.6525,,936.2956543,,110.0,,0 / 0,101,2017-10-05 18:59:05:155
-0.988,5.314,8.671,-0.587,5.022,8.403,-0.385,0.207,0.129,18.3,12.4,26.5,1.066,-20.8,20.4,-33.3,35.3,-30.1,4.3,5.0,25.49,12.84155,77.6525,,936.2956543,,110.0,,0 / 0,111,2017-10-05 18:59:05:165
0.405,4.392,8.256,-0.562,5.08,8.37,0.961,-0.759,-0.246,12.5,-0.8,23.0,1.066,-20.6,20.5,-33.3,34.9,-30.8,4.0,5.0,25.49,12.84155,77.6525,,936.2956543,,110.0,,0 / 0,121,2017-10-05 18:59:05:175
0.405,4.392,8.256,-0.562,5.08,8.37,0.961,-0.759,-0.246,3.6,-8.7,14.7,1.066,-20.6,20.5,-33.3,34.9,-30.8,4.0,5.0,25.49,12.84155,77.6525,,936.2956543,,110.0,,0 / 0,132,2017-10-05 18:59:05:186
0.824,4.593,8.396,-0.54,5.117,8.348,1.351,-0.599,-0.087,3.6,-8.7,14.7,1.066,-20.6,21.0,-33.4,34.9,-30.8,4.0,5.0,25.49,12.84155,77.6525,,936.2956543,,110.0,,0 / 0,141,2017-10-05 18:59:05:195
0.849,4.312,8.677,-0.5,5.117,8.351,1.335,-0.875,0.187,-1.8,-12.0,7.8,1.066,-20.6,21.2,-33.2,33.9,-31.5,3.7,5.0,25.49,12.84155,77.6525,,936.2956543,,110.0,,0 / 0,151,2017-10-05 18:59:05:205
0.849,4.312,8.677,-0.5,5.117,8.351,1.335,-0.875,0.187,-1.8,-12.0,7.8,1.066,-20.6,21.2,-33.2,33.9,-31.5,3.7,5.0,25.49,12.84155,77.6525,,936.2956543,,110.0,,0 / 0,161,2017-10-05 18:59:05:215
0.849,4.312,8.677,-0.487,5.119,8.35,1.266,-1.102,0.726,-3.0,-12.3,-1.3,1.066,-20.6,21.2,-33.2,33.9,-31.5,3.7,5.0,25.49,12.84155,77.6525,,936.2956543,,110.0,,0 / 0,171,2017-10-05 18:59:05:225
0.792,4.083,9.225,-0.487,5.119,8.35,1.266,-1.102,0.726,-1.3,-15.5,-7.3,1.066,-20.6,21.2,-33.5,33.9,-31.5,3.7,5.0,25.49,12.84155,77.6525,,936.2956543,,110.0,,0 / 0,181,2017-10-05 18:59:05:235
0.792,4.083,9.225,-0.458,5.08,8.376,0.67,-0.837,0.687,-1.3,-15.5,-7.3,1.066,-20.6,21.2,-33.5,33.9,-31.5,3.7,5.0,25.49,12.84155,77.6525,,936.2956543,,110.0,,0 / 0,191,2017-10-05 18:59:05:245
-0.297,4.953,8.831,-0.458,5.08,8.376,0.67,-0.837,0.687,-1.5,-12.0,-6.0,1.066,-20.4,21.3,-33.5,32.0,-31.2,3.1,5.0,25.49,12.84155,77.6525,,936.2956543,,110.0,,0 / 0,200,2017-10-05 18:59:05:254
-0.297,4.953,8.831,-0.42,5.034,8.406,0.129,-0.161,0.284,-1.5,-12.0,-6.0,0.0,-20.4,21.3,-33.5,32.0,-31.2,3.1,5.0,25.49,12.84155,77.6525,,936.2956543,,110.0,,0 / 0,211,2017-10-05 18:59:05:265
-0.224,5.292,8.786,-0.413,5.009,8.421,0.193,0.198,0.224,-2.7,-4.1,-0.7,0.0,-20.2,21.3,-33.4,32.0,-31.2,3.1,5.0,25.49,12.84155,77.6525,,936.2956543,,110.0,,0 / 0,221,2017-10-05 18:59:05:275
-0.025,5.418,8.452,-0.407,4.954,8.454,0.382,0.377,-0.137,-3.4,1.5,3.8,0.0,-20.0,20.9,-33.4,32.1,-30.7,2.8,5.0,25.49,12.84155,77.6525,,936.2956543,,110.0,,0 / 0,231,2017-10-05 18:59:05:285
-0.025,5.418,8.452,-0.407,4.954,8.454,0.382,0.377,-0.137,-3.4,1.5,3.8,0.0,-20.0,20.9,-33.4,32.1,-30.7,2.8,5.0,25.49,12.84155,77.6525,,936.2956543,,110.0,,0 / 0,241,2017-10-05 18:59:05:295
0.16,5.273,8.208,-0.416,4.922,8.472,0.574,0.267,-0.395,-5.7,6.1,5.6,0.0,-20.0,20.9,-33.4,32.1,-30.7,2.8,5.0,36.43,12.84155,77.6525,,936.2956543,,110.0,,0 / 0,251,2017-10-05 18:59:05:305
0.16,5.273,8.208,-0.416,4.922,8.472,0.574,0.267,-0.395,-5.7,6.1,5.6,0.0,-20.0,20.9,-33.4,32.1,-30.7,2.8,5.0,36.43,12.84155,77.6525,,936.2956543,,110.0,,0 / 0,261,2017-10-05 18:59:05:315
-0.013,5.353,8.318,-0.411,4.913,8.478,0.398,0.355,-0.293,-8.3,10.0,4.5,0.0,-20.1,20.9,-33.3,32.1,-30.7,2.8,5.0,36.43,12.84155,77.6525,,936.2956543,,110.0,,0 / 0,271,2017-10-05 18:59:05:325
-0.013,5.353,8.318,-0.411,4.913,8.478,0.398,0.355,-0.293,-10.0,9.2,2.7,0.0,-20.1,20.9,-33.3,32.1,-30.7,2.8,5.0,36.43,12.84155,77.6525,,936.2956543,,110.0,,0 / 0,281,2017-10-05 18:59:05:335
-0.462,5.426,8.789,-0.406,4.903,8.483,-0.048,0.436,0.165,-10.0,9.2,2.7,0.0,-20.2,21.1,-33.3,32.2,-30.1,2.8,5.0,36.43,12.84155,77.6525,,936.2956543,,110.0,,0 / 0,291,2017-10-05 18:59:05:345
-0.541,5.461,9.157,-0.394,4.894,8.489,-0.138,0.479,0.521,-10.0,9.2,2.7,0.0,-20.3,20.9,-33.1,32.2,-30.1,2.8,5.0,36.43,12.84155,77.6525,,936.2956543,,110.0,,0 / 0,301,2017-10-05 18:59:05:355
-0.541,5.461,9.157,-0.394,4.894,8.489,-0.138,0.479,0.521,-9.5,6.5,1.3,0.0,-20.3,20.9,-33.1,32.2,-30.1,2.8,5.0,36.43,12.84155,77.6525,,936.2956543,,110.0,,0 / 0,311,2017-10-05 18:59:05:365
-0.343,5.351,9.17,-0.389,4.893,8.49,0.052,0.372,0.533,-7.8,5.2,-0.5,0.0,-20.1,20.9,-33.1,32.2,-29.9,2.6,5.0,36.43,12.84155,77.6525,,936.2956543,,110.0,,0 / 0,321,2017-10-05 18:59:05:375
-0.343,5.351,9.17,-0.389,4.893,8.49,0.052,0.372,0.533,-7.8,5.2,-0.5,0.0,-20.1,20.9,-33.1,32.2,-29.9,2.6,5.0,36.43,12.84155,77.6525,,936.2956543,,110.0,,0 / 0,331,2017-10-05 18:59:05:385
-0.346,5.144,9.332,-0.389,4.89,8.492,0.049,0.172,0.691,-8.9,6.7,-1.3,0.0,-19.9,20.9,-33.1,32.2,-29.9,2.6,5.0,36.43,12.84155,77.6525,,936.2956543,,110.0,,0 / 0,342,2017-10-05 18:59:05:396
-0.346,5.144,9.332,-0.389,4.89,8.492,0.049,0.172,0.691,-8.9,4.3,0.2,0.0,-19.9,20.9,-33.1,32.2,-29.9,2.6,5.0,36.43,12.84155,77.6525,,936.2956543,,110.0,,0 / 0,351,2017-10-05 18:59:05:405
-0.425,5.352,9.314,-0.407,4.869,8.503,-0.011,0.397,0.662,-6.3,-3.6,1.8,0.0,-20.0,20.9,-33.1,32.2,-29.9,2.6,5.0,36.43,12.84155,77.6525,,936.2956543,,110.0,,0 / 0,362,2017-10-05 18:59:05:416
-0.566,5.047,9.457,-0.412,4.845,8.516,-0.145,0.121,0.789,-6.3,-3.6,1.8,0.0,-19.9,20.9,-32.9,32.3,-29.8,2.7,5.0,36.43,12.84155,77.6525,,936.2956543,,110.0,,0 / 0,371,2017-10-05 18:59:05:425
-0.566,5.047,9.457,-0.412,4.845,8.516,-0.145,0.121,0.789,-4.5,-16.1,2.2,0.0,-19.9,20.9,-32.9,32.3,-29.8,2.7,5.0,36.43,12.84155,77.6525,,936.2956543,,110.0,,0 / 0,381,2017-10-05 18:59:05:435
-0.566,5.047,9.457,-0.359,4.824,8.531,-0.323,0.116,0.672,-4.5,-16.1,2.2,0.0,-19.9,21.0,-33.1,32.3,-29.8,2.7,5.0,36.43,12.84155,77.6525,,936.2956543,,110.0,,0 / 0,391,2017-10-05 18:59:05:445
-0.694,5.021,9.353,-0.359,4.824,8.531,-0.323,0.116,0.672,-4.5,-25.5,3.9,0.0,-19.9,21.0,-33.1,32.3,-29.8,2.7,5.0,36.43,12.84155,77.6525,,936.2956543,,110.0,,0 / 0,401,2017-10-05 18:59:05:455
-0.694,5.021,9.353,-0.359,4.824,8.531,-0.323,0.116,0.672,-4.5,-25.5,3.9,0.0,-19.9,21.0,-33.1,32.3,-29.8,2.7,5.0,36.43,12.84155,77.6525,,936.2956543,,110.0,,0 / 0,411,2017-10-05 18:59:05:465
-0.321,5.463,9.726,-0.294,4.797,8.548,-0.022,0.579,1.021,-4.0,-29.8,8.0,0.0,-19.6,21.1,-32.9,32.1,-29.5,2.4,5.0,36.43,12.84155,77.6525,,936.2956543,,110.0,,0 / 0,421,2017-10-05 18:59:05:475
-0.321,5.463,9.726,-0.294,4.797,8.548,-0.022,0.579,1.021,-4.0,-29.8,8.0,0.0,-19.6,21.1,-32.9,32.1,-29.5,2.4,5.0,36.43,12.84155,77.6525,,936.2956543,,110.0,,0 / 0,431,2017-10-05 18:59:05:485
0.511,5.699,9.629,-0.234,4.78,8.56,0.737,0.828,0.915,-0.5,-24.6,10.6,0.0,-19.6,21.3,-32.6,32.1,-29.5,2.4,5.0,36.43,12.84155,77.6525,,936.2956543,,110.0,,0 / 0,441,2017-10-05 18:59:05:495
0.511,5.699,9.629,-0.234,4.78,8.56,0.737,0.828,0.915,2.4,-13.0,7.6,0.0,-19.6,21.5,-32.8,30.8,-29.2,1.6,5.0,36.43,12.84155,77.6525,,936.2956543,,110.0,,0 / 0,451,2017-10-05 18:59:05:505
1.027,5.363,9.182,-0.179,4.775,8.564,1.19,0.502,0.47,2.4,-13.0,7.6,0.0,-19.6,21.5,-32.8,30.8,-29.2,1.6,5.0,36.43,12.84155,77.6525,,936.2956543,,110.0,,0 / 0,461,2017-10-05 18:59:05:515
0.555,4.999,8.886,-0.179,4.775,8.564,1.19,0.502,0.47,2.3,-0.8,4.2,0.0,-19.7,21.5,-32.5,30.8,-29.2,1.6,5.0,36.43,12.84155,77.6525,,936.2956543,,110.0,,0 / 0,471,2017-10-05 18:59:05:525
0.555,4.999,8.886,-0.145,4.774,8.565,0.691,0.145,0.179,2.3,-0.8,4.2,0.0,-19.7,21.5,-32.5,30.8,-29.2,1.6,5.0,36.43,12.84155,77.6525,,936.2956543,,110.0,,0 / 0,481,2017-10-05 18:59:05:535
0.531,4.942,8.835,-0.099,4.784,8.56,0.622,0.078,0.133,-0.5,7.1,2.0,0.0,-19.7,21.5,-32.5,30.8,-29.2,1.6,5.0,36.43,12.84155,77.6525,,936.2956543,,110.0,,0 / 0,491,2017-10-05 18:59:05:545
0.531,4.942,8.835,-0.099,4.784,8.56,0.622,0.078,0.133,-2.6,8.7,-0.1,0.0,-20.1,21.7,-32.7,30.1,-29.2,0.7,5.0,36.43,12.84155,77.6525,,936.2956543,,110.0,,0 / 0,501,2017-10-05 18:59:05:555
0.38,4.797,8.964,-0.099,4.784,8.56,0.622,0.078,0.133,-2.6,8.7,-0.1,0.0,-20.1,21.7,-32.7,30.1,-29.2,0.7,5.0,36.43,12.84155,77.6525,,936.2956543,,110.0,,0 / 0,511,2017-10-05 18:59:05:565
-0.202,4.972,9.049,-0.069,4.788,8.558,-0.13,0.104,0.346,-2.1,9.0,-0.3,0.0,-20.1,21.8,-32.5,30.1,-29.2,0.7,5.0,36.43,12.84155,77.6525,,936.2956543,,110.0,,0 / 0,521,2017-10-05 18:59:05:575
-0.202,4.972,9.049,-0.069,4.788,8.558,-0.13,0.104,0.346,-2.1,9.0,-0.3,0.0,-20.1,21.8,-32.5,30.1,-29.2,0.7,5.0,36.43,12.84155,77.6525,,936.2956543,,110.0,,0 / 0,531,2017-10-05 18:59:05:585
-0.419,5.008,9.025,-0.059,4.784,8.56,-0.352,0.143,0.32,-1.8,5.6,3.1,0.0,-20.1,22.0,-32.3,30.2,-29.2,0.4,5.0,36.43,12.84155,77.6525,,936.2956543,,110.0,,0 / 0,542,2017-10-05 18:59:05:596
-0.419,5.008,9.025,-0.064,4.774,8.566,-0.085,0.064,0.209,-3.6,2.2,4.5,0.0,-20.1,22.0,-32.3,30.2,-29.2,0.4,5.0,36.43,12.84155,77.6525,,936.2956543,,110.0,,0 / 0,551,2017-10-05 18:59:05:605
-0.419,5.008,9.025,-0.064,4.774,8.566,-0.085,0.064,0.209,-3.6,2.2,4.5,0.0,-20.1,22.0,-32.3,30.2,-29.2,0.4,5.0,36.43,12.84155,77.6525,,936.2956543,,110.0,,0 / 0,561,2017-10-05 18:59:05:615
-0.006,4.833,9.025,-0.07,4.762,8.572,0.065,-0.007,0.308,-6.6,3.2,3.4,0.0,-20.1,22.1,-32.2,30.2,-29.2,0.4,5.0,36.43,12.84155,77.6525,,936.2956543,,110.0,,0 / 0,572,2017-10-05 18:59:05:626
-0.006,4.833,9.025,-0.07,4.762,8.572,0.065,-0.007,0.308,-6.6,3.2,3.4,0.0,-20.1,22.1,-32.2,30.2,-29.2,0.4,5.0,36.43,12.84155,77.6525,,936.2956543,,110.0,,0 / 0,581,2017-10-05 18:59:05:635
-0.256,4.839,9.439,-0.092,4.745,8.582,-0.16,0.016,0.706,-8.3,3.9,2.0,0.0,-20.2,22.1,-32.1,30.3,-29.1,0.5,5.0,26.99,12.84155,77.6525,,936.2956543,,110.0,,0 / 0,591,2017-10-05 18:59:05:645
-0.256,4.839,9.439,-0.092,4.745,8.582,-0.16,0.016,0.706,-5.7,0.3,-0.9,0.0,-20.2,22.1,-32.1,30.3,-29.1,0.5,5.0,26.99,12.84155,77.6525,,936.2956543,,110.0,,0 / 0,601,2017-10-05 18:59:05:655
-0.083,4.693,9.661,-0.111,4.723,8.594,0.03,-0.105,0.913,-5.7,0.3,-0.9,0.0,-20.3,22.1,-32.3,30.3,-29.1,0.5,5.0,26.99,12.84155,77.6525,,936.2956543,,110.0,,0 / 0,610,2017-10-05 18:59:05:664
-0.947,5.231,9.316,-0.103,4.71,8.601,-0.829,0.437,0.565,-1.9,-3.0,-1.4,0.0,-20.3,22.0,-32.2,30.6,-28.8,0.7,5.0,26.99,12.84155,77.6525,,936.2956543,,110.0,,0 / 0,621,2017-10-05 18:59:05:675
-0.947,5.231,9.316,-0.103,4.71,8.601,-0.829,0.437,0.565,-1.9,-3.0,-1.4,0.0,-20.3,22.0,-32.2,30.6,-28.8,0.7,5.0,26.99,12.84155,77.6525,,936.2956543,,110.0,,0 / 0,631,2017-10-05 18:59:05:685
-0.947,5.231,9.316,-0.103,4.71,8.601,-0.829,0.437,0.565,-1.9,-3.0,-1.4,0.0,-20.3,22.0,-32.2,30.6,-28.8,0.7,5.0,26.99,12.84155,77.6525,,936.2956543,,110.0,,0 / 0,642,2017-10-05 18:59:05:696
-0.378,5.044,9.318,-0.092,4.686,8.614,-0.28,0.277,0.554,-1.2,-8.6,0.8,0.0,-20.3,22.0,-32.3,30.6,-28.8,0.7,5.0,26.99,12.84155,77.6525,,936.2956543,,110.0,,0 / 0,652,2017-10-05 18:59:05:706
-0.378,5.044,9.318,-0.092,4.686,8.614,-0.28,0.277,0.554,-1.2,-8.6,0.8,0.0,-20.3,22.0,-32.3,30.6,-28.8,0.7,5.0,26.99,12.84155,77.6525,,936.2956543,,110.0,,0 / 0,661,2017-10-05 18:59:05:715
0.05,5.057,9.655,-0.04,4.659,8.629,0.09,0.317,0.871,-1.5,-19.0,2.7,0.0,-20.1,21.9,-31.9,30.5,-28.5,0.6,5.0,26.99,12.84155,77.6525,,936.2956543,,110.0,,0 / 0,672,2017-10-05 18:59:05:726
0.05,5.057,9.655,-0.04,4.659,8.629,0.09,0.317,0.871,-1.5,-19.0,2.7,0.0,-20.1,21.9,-31.9,30.5,-28.5,0.6,5.0,26.99,12.84155,77.6525,,936.2956543,,110.0,,0 / 0,681,2017-10-05 18:59:05:735
0.078,5.082,9.299,-0.01,4.655,8.631,0.087,0.345,0.518,-1.2,-18.2,1.3,0.0,-20.3,21.8,-31.9,30.5,-28.5,0.6,5.0,26.99,12.84155,77.6525,,936.2956543,,110.0,,0 / 0,692,2017-10-05 18:59:05:746
0.078,5.082,9.299,0.012,4.654,8.632,0.064,0.347,0.517,-1.2,-18.2,1.3,0.0,-20.3,21.7,-32.0,30.5,-28.5,0.6,5.0,26.99,12.84155,77.6525,,936.2956543,,110.0,,0 / 0,701,2017-10-05 18:59:05:755
0.078,5.082,9.299,0.012,4.654,8.632,0.064,0.347,0.517,-1.2,-18.2,1.3,0.0,-20.3,21.7,-32.0,30.5,-28.5,0.6,5.0,26.99,12.84155,77.6525,,936.2956543,,110.0,,0 / 0,711,2017-10-05 18:59:05:765
0.177,5.139,9.36,0.074,4.643,8.638,0.1,0.414,0.572,-1.2,-20.3,-0.8,0.0,-20.3,21.9,-32.2,29.7,-28.3,-0.5,5.0,26.99,12.84155,77.6525,,936.2956543,,110.0,,0 / 0,721,2017-10-05 18:59:05:775
0.177,5.139,9.36,0.074,4.643,8.638,0.1,0.414,0.572,-1.2,-20.3,-0.8,0.0,-20.3,21.9,-32.2,29.7,-28.3,-0.5,5.0,26.99,12.84155,77.6525,,936.2956543,,110.0,,0 / 0,731,2017-10-05 18:59:05:785
0.513,5.119,9.098,0.138,4.639,8.639,0.367,0.397,0.313,-1.2,-20.3,-0.8,0.0,-20.5,21.9,-32.3,29.7,-28.3,-0.5,5.0,26.99,12.84155,77.6525,,936.2956543,,110.0,,0 / 0,741,2017-10-05 18:59:05:795
0.513,5.119,9.098,0.173,4.641,8.637,0.332,0.396,0.314,-0.2,-22.9,-1.6,0.0,-20.5,21.9,-32.3,29.7,-28.3,-0.5,5.0,26.99,12.84155,77.6525,,936.2956543,,110.0,,0 / 0,751,2017-10-05 18:59:05:805
0.513,5.119,9.098,0.173,4.641,8.637,0.332,0.396,0.314,-2.2,-22.2,-3.1,0.0,-20.5,21.9,-32.3,29.7,-28.3,-0.5,5.0,26.99,12.84155,77.6525,,936.2956543,,110.0,,0 / 0,761,2017-10-05 18:59:05:815
0.71,4.832,8.726,0.238,4.636,8.638,0.461,0.118,-0.052,-2.2,-22.2,-3.1,0.0,-20.6,21.8,-32.3,30.4,-28.2,-1.1,5.0,26.99,12.84155,77.6525,,936.2956543,,110.0,,0 / 0,772,2017-10-05 18:59:05:826
0.71,4.832,8.726,0.238,4.636,8.638,0.461,0.118,-0.052,-5.1,-19.9,-5.9,0.0,-20.6,21.8,-32.3,30.4,-28.2,-1.1,5.0,26.99,12.84155,77.6525,,936.2956543,,110.0,,0 / 0,781,2017-10-05 18:59:05:835
0.471,5.014,9.787,0.287,4.62,8.646,0.177,0.313,0.984,-5.0,-17.0,-9.9,0.0,-20.8,21.9,-32.2,30.4,-28.2,-1.1,5.0,26.99,12.84155,77.6525,,936.2956543,,110.0,,0 / 0,791,2017-10-05 18:59:05:845
0.471,5.014,9.787,0.287,4.62,8.646,0.177,0.313,0.984,-5.0,-17.0,-9.9,0.0,-20.8,21.9,-32.2,30.4,-28.2,-1.1,5.0,26.99,12.84155,77.6525,,936.2956543,,110.0,,0 / 0,801,2017-10-05 18:59:05:855
0.216,5.183,10.244,0.36,4.625,8.64,-0.147,0.475,1.439,1.2,-20.4,-14.3,0.0,-20.8,22.3,-32.1,29.8,-28.1,-1.9,5.0,26.99,12.84155,77.6525,,936.2956543,,110.0,,0 / 0,811,2017-10-05 18:59:05:865
0.216,5.183,10.244,0.36,4.625,8.64,-0.147,0.475,1.439,8.0,-22.5,-18.3,0.0,-20.8,22.3,-32.1,29.8,-28.1,-1.9,5.0,26.99,12.84155,77.6525,,936.2956543,,110.0,,0 / 0,822,2017-10-05 18:59:05:876
-0.147,5.323,10.284,0.408,4.631,8.635,-0.553,0.607,1.484,8.0,-22.5,-18.3,0.0,-21.2,22.2,-32.3,29.8,-28.1,-1.9,5.0,26.99,12.84155,77.6525,,936.2956543,,110.0,,0 / 0,831,2017-10-05 18:59:05:885
-0.155,5.253,9.783,0.427,4.645,8.626,-0.58,0.524,1.0,8.0,-22.5,-18.3,0.0,-21.2,22.2,-32.3,29.8,-28.1,-1.9,5.0,26.99,12.84155,77.6525,,936.2956543,,110.0,,0 / 0,841,2017-10-05 18:59:05:895
-0.155,5.253,9.783,0.427,4.645,8.626,-0.58,0.524,1.0,11.3,-23.4,-18.5,0.0,-21.2,22.2,-32.3,29.8,-28.1,-1.9,5.0,26.99,12.84155,77.6525,,936.2956543,,110.0,,0 / 0,851,2017-10-05 18:59:05:905
0.505,4.931,9.715,0.46,4.656,8.618,0.037,0.196,0.941,10.4,-27.2,-23.1,0.0,-21.4,22.4,-32.1,29.0,-28.3,-2.8,5.0,26.99,12.84155,77.6525,,936.2956543,,110.0,,0 / 0,862,2017-10-05 18:59:05:916
0.505,4.931,9.715,0.46,4.656,8.618,0.037,0.196,0.941,10.4,-27.2,-23.1,0.0,-21.4,22.4,-32.1,29.0,-28.3,-2.8,5.0,26.99,12.84155,77.6525,,936.2956543,,110.0,,0 / 0,872,2017-10-05 18:59:05:926
0.742,4.542,9.24,0.481,4.686,8.601,0.249,-0.216,0.491,12.9,-26.9,-30.6,0.0,-21.7,22.2,-32.0,29.0,-28.3,-2.8,5.0,26.99,12.84155,77.6525,,936.2956543,,110.0,,0 / 0,881,2017-10-05 18:59:05:935
0.742,4.542,9.24,0.481,4.686,8.601,0.249,-0.216,0.491,17.6,-19.7,-33.4,0.0,-21.7,22.2,-32.0,29.0,-28.3,-2.8,5.0,26.99,12.84155,77.6525,,936.2956543,,110.0,,0 / 0,892,2017-10-05 18:59:05:946
0.115,5.166,8.666,0.464,4.74,8.572,-0.351,0.342,-0.045,17.7,-7.4,-30.4,0.0,-22.0,22.3,-31.6,29.8,-28.5,-3.2,5.0,26.99,12.84155,77.6525,,936.2956543,,110.0,,0 / 0,901,2017-10-05 18:59:05:955
0.115,5.166,8.666,0.464,4.74,8.572,-0.351,0.342,-0.045,17.7,-7.4,-30.4,0.0,-22.0,22.3,-31.6,29.8,-28.5,-3.2,5.0,26.99,12.84155,77.6525,,936.2956543,,110.0,,0 / 0,911,2017-10-05 18:59:05:965
-0.598,4.935,7.976,0.451,4.781,8.55,-1.039,0.074,-0.702,17.7,-7.4,-30.4,0.0,-22.3,22.5,-31.4,29.8,-28.5,-3.2,5.0,29.59,12.84155,77.6525,,936.2956543,,110.0,,0 / 0,921,2017-10-05 18:59:05:975
-0.598,4.935,7.976,0.451,4.781,8.55,-1.039,0.074,-0.702,9.9,0.2,-31.0,0.0,-22.3,22.5,-31.4,29.8,-28.5,-3.2,5.0,29.59,12.84155,77.6525,,936.2956543,,110.0,,0 / 0,931,2017-10-05 18:59:05:985
-0.877,4.9,8.728,0.401,4.785,8.551,-1.263,0.037,0.037,9.9,0.2,-31.0,0.0,-22.7,22.4,-31.5,31.0,-29.2,-3.0,5.0,29.59,12.84155,77.6525,,936.2956543,,110.0,,0 / 0,941,2017-10-05 18:59:05:995
-0.877,4.9,8.728,0.401,4.785,8.551,-1.263,0.037,0.037,1.6,-2.9,-29.6,0.0,-22.7,22.4,-31.5,31.0,-29.2,-3.0,5.0,29.59,12.84155,77.6525,,936.2956543,,110.0,,0 / 0,951,2017-10-05 18:59:06:005
-1.591,6.243,9.32,0.366,4.828,8.528,-1.931,1.314,0.643,-2.0,-8.1,-15.0,0.0,-23.2,22.0,-31.4,31.0,-29.2,-3.0,5.0,29.59,12.84155,77.6525,,936.2956543,,110.0,,0 / 0,961,2017-10-05 18:59:06:015
-1.591,6.243,9.32,0.355,4.835,8.525,-1.92,1.308,0.646,-2.0,-8.1,-15.0,0.0,-23.2,22.0,-31.4,31.0,-29.2,-3.0,5.0,29.59,12.84155,77.6525,,936.2956543,,110.0,,0 / 0,971,2017-10-05 18:59:06:025
-1.591,6.243,9.32,0.355,4.835,8.525,-1.92,1.308,0.646,1.1,-13.5,-6.0,0.0,-23.2,22.0,-31.4,31.0,-29.2,-3.0,5.0,29.59,12.84155,77.6525,,936.2956543,,110.0,,0 / 0,981,2017-10-05 18:59:06:035
-0.548,5.207,8.921,0.331,4.852,8.516,-0.87,0.272,0.262,7.3,-12.9,-4.8,0.0,-23.4,21.9,-31.3,31.9,-29.5,-2.4,5.0,29.59,12.84155,77.6525,,936.2956543,,110.0,,0 / 0,991,2017-10-05 18:59:06:045
-0.548,5.207,8.921,0.328,4.862,8.51,-0.867,0.262,0.268,7.3,-12.9,-4.8,0.0,-23.7,21.7,-31.3,31.9,-29.5,-2.4,5.0,29.59,12.84155,77.6525,,936.2956543,,110.0,,0 / 0,1001,2017-10-05 18:59:06:055
-0.548,5.207,8.921,0.328,4.862,8.51,-0.867,0.262,0.268,15.5,0.6,-2.8,0.0,-23.7,21.7,-31.3,31.9,-29.5,-2.4,5.0,29.59,12.84155,77.6525,,936.2956543,,110.0,,0 / 0,1011,2017-10-05 18:59:06:065
-0.553,5.73,8.596,0.266,4.931,8.473,-0.809,0.707,-0.015,15.5,0.6,-2.8,0.0,-23.8,21.3,-31.2,31.9,-29.5,-2.4,5.0,29.59,12.84155,77.6525,,936.2956543,,110.0,,0 / 0,1022,2017-10-05 18:59:06:076
-0.553,5.73,8.596,0.266,4.931,8.473,-0.809,0.707,-0.015,19.8,15.7,-0.4,0.0,-23.8,21.3,-31.2,31.9,-29.5,-2.4,5.0,29.59,12.84155,77.6525,,936.2956543,,110.0,,0 / 0,1032,2017-10-05 18:59:06:086
-0.966,5.787,8.522,0.224,4.986,8.442,-1.175,0.709,-0.057,17.1,19.2,2.7,0.0,-24.2,21.1,-31.1,34.0,-30.2,-1.8,5.0,29.59,12.84155,77.6525,,936.2956543,,110.0,,0 / 0,1041,2017-10-05 18:59:06:095
-0.966,5.787,8.522,0.224,4.986,8.442,-1.175,0.709,-0.057,17.1,19.2,2.7,0.0,-24.2,21.1,-31.1,34.0,-30.2,-1.8,5.0,29.59,12.84155,77.6525,,936.2956543,,110.0,,0 / 0,1051,2017-10-05 18:59:06:105
-0.611,5.595,9.197,0.174,5.028,8.418,-0.776,0.477,0.632,10.8,5.5,6.7,0.0,-24.5,20.8,-31.2,34.0,-30.2,-1.8,5.0,29.59,12.84155,77.6525,,936.2956543,,110.0,,0 / 0,1061,2017-10-05 18:59:06:115
-0.611,5.595,9.197,0.174,5.028,8.418,-0.776,0.477,0.632,10.8,5.5,6.7,0.0,-24.5,20.8,-31.2,34.0,-30.2,-1.8,5.0,29.59,12.84155,77.6525,,936.2956543,,110.0,,0 / 0,1071,2017-10-05 18:59:06:125
0.197,5.279,9.264,0.173,5.1,8.375,0.021,0.095,0.741,5.8,-8.6,6.7,0.0,-24.8,20.5,-31.4,35.4,-31.3,-1.2,5.0,29.59,12.84155,77.6525,,936.2956543,,110.0,,0 / 0,1081,2017-10-05 18:59:06:135
0.197,5.279,9.264,0.173,5.1,8.375,0.021,0.095,0.741,5.8,-8.6,6.7,0.0,-24.8,20.5,-31.4,35.4,-31.3,-1.2,5.0,29.59,12.84155,77.6525,,936.2956543,,110.0,,0 / 0,1091,2017-10-05 18:59:06:145
0.921,5.112,9.269,0.19,5.141,8.349,0.716,-0.111,0.771,5.8,-8.6,6.7,0.0,-24.9,20.3,-31.2,35.4,-31.3,-1.2,5.0,29.59,12.84155,77.6525,,936.2956543,,110.0,,0 / 0,1102,2017-10-05 18:59:06:156
0.921,5.112,9.269,0.19,5.141,8.349,0.716,-0.111,0.771,5.9,-14.0,4.7,0.0,-24.9,20.3,-31.2,35.4,-31.3,-1.2,5.0,29.59,12.84155,77.6525,,936.2956543,,110.0,,0 / 0,1111,2017-10-05 18:59:06:165
0.279,5.597,9.141,0.211,5.166,8.333,0.063,0.342,0.661,8.5,-13.0,-0.3,0.0,-24.9,20.0,-31.2,35.9,-31.6,-1.3,5.0,29.59,12.84155,77.6525,,936.2956543,,110.0,,0 / 0,1121,2017-10-05 18:59:06:175
0.279,5.597,9.141,0.211,5.166,8.333,0.063,0.342,0.661,9.4,-3.0,4.0,0.0,-24.9,20.0,-31.2,35.9,-31.6,-1.3,5.0,29.59,12.84155,77.6525,,936.2956543,,110.0,,0 / 0,1132,2017-10-05 18:59:06:186
-0.177,5.951,8.8,0.225,5.171,8.329,-0.4,0.685,0.329,9.4,-3.0,4.0,0.0,-24.8,20.0,-31.3,35.9,-31.6,-1.3,5.0,29.59,12.84155,77.6525,,936.2956543,,110.0,,0 / 0,1141,2017-10-05 18:59:06:195
-0.482,5.859,9.312,0.224,5.177,8.326,-0.698,0.588,0.837,11.8,8.7,10.6,0.0,-24.8,20.0,-31.3,35.9,-31.6,-1.3,5.0,29.59,12.84155,77.6525,,936.2956543,,110.0,,0 / 0,1151,2017-10-05 18:59:06:205
-0.482,5.859,9.312,0.224,5.177,8.326,-0.698,0.588,0.837,16.9,12.5,14.8,0.0,-24.8,20.0,-31.3,35.9,-31.6,-1.3,5.0,29.59,12.84155,77.6525,,936.2956543,,110.0,,0 / 0,1161,2017-10-05 18:59:06:215
0.057,4.998,9.558,0.237,5.22,8.299,-0.18,-0.302,1.106,16.9,12.5,14.8,0.0,-25.1,20.0,-31.1,35.6,-31.9,-1.5,5.0,29.59,12.84155,77.6525,,936.2956543,,110.0,,0 / 0,1171,2017-10-05 18:59:06:225
0.057,4.998,9.558,0.237,5.22,8.299,-0.18,-0.302,1.106,16.9,12.5,14.8,0.0,-25.1,20.0,-31.1,35.6,-31.9,-1.5,5.0,29.59,12.84155,77.6525,,936.2956543,,110.0,,0 / 0,1182,2017-10-05 18:59:06:236
0.518,4.575,9.001,0.224,5.269,8.268,0.286,-0.768,0.589,22.4,10.6,12.9,0.0,-25.4,19.9,-31.4,35.6,-31.9,-1.5,5.0,29.59,12.84155,77.6525,,936.2956543,,110.0,,0 / 0,1191,2017-10-05 18:59:06:245
0.518,4.575,9.001,0.224,5.269,8.268,0.286,-0.768,0.589,22.5,13.4,10.8,0.0,-25.4,19.9,-31.4,35.6,-31.9,-1.5,5.0,29.59,12.84155,77.6525,,936.2956543,,110.0,,0 / 0,1201,2017-10-05 18:59:06:255
0.83,4.785,7.739,0.196,5.327,8.232,0.62,-0.618,-0.617,16.4,12.5,12.9,0.0,-25.3,19.9,-31.4,35.5,-32.5,-1.6,5.0,29.59,12.84155,77.6525,,936.2956543,,110.0,,0 / 0,1211,2017-10-05 18:59:06:265
0.83,4.785,7.739,0.196,5.327,8.232,0.62,-0.618,-0.617,16.4,12.5,12.9,0.0,-25.3,19.9,-31.4,35.5,-32.5,-1.6,5.0,29.59,12.84155,77.6525,,936.2956543,,110.0,,0 / 0,1222,2017-10-05 18:59:06:276
0.83,4.785,7.739,0.196,5.327,8.232,0.62,-0.618,-0.617,16.4,12.5,12.9,0.0,-25.3,19.9,-31.4,35.5,-32.5,-1.6,5.0,29.59,12.84155,77.6525,,936.2956543,,110.0,,0 / 0,1230,2017-10-05 18:59:06:284
1.74,4.613,7.839,0.196,5.328,8.231,1.517,-0.789,-0.518,6.2,-2.7,13.6,0.0,-24.9,19.6,-31.6,35.5,-32.5,-1.6,5.0,32.35,12.84155,77.6525,,936.2956543,,110.0,,0 / 0,1241,2017-10-05 18:59:06:295
0.275,5.945,8.336,0.226,5.326,8.231,0.044,0.524,-0.029,-0.8,-16.8,18.6,0.0,-24.8,19.3,-31.7,35.8,-32.9,-1.4,5.0,32.35,12.84155,77.6525,,936.2956543,,110.0,,0 / 0,1251,2017-10-05 18:59:06:305
-0.745,6.354,8.077,0.291,5.316,8.236,-1.024,0.937,-0.289,-4.0,-23.9,29.4,0.0,-24.7,19.5,-31.8,35.8,-32.9,-1.4,5.0,32.35,12.84155,77.6525,,936.2956543,,110.0,,0 / 0,1261,2017-10-05 18:59:06:315
-0.745,6.354,8.077,0.291,5.316,8.236,-1.024,0.937,-0.289,-1.9,-26.7,34.1,0.0,-24.7,19.5,-31.8,35.8,-32.9,-1.4,5.0,32.35,12.84155,77.6525,,936.2956543,,110.0,,0 / 0,1271,2017-10-05 18:59:06:325
0.16,6.022,8.197,0.387,5.308,8.237,-0.229,0.618,-0.171,-1.9,-26.7,34.1,0.0,-24.6,19.4,-32.0,35.8,-32.9,-1.4,5.0,32.35,12.84155,77.6525,,936.2956543,,110.0,,0 / 0,1281,2017-10-05 18:59:06:335
0.16,6.022,8.197,0.387,5.308,8.237,-0.229,0.618,-0.171,6.5,-15.8,28.3,0.0,-24.6,19.4,-32.0,35.8,-32.9,-1.4,5.0,32.35,12.84155,77.6525,,936.2956543,,110.0,,0 / 0,1292,2017-10-05 18:59:06:346
1.67,5.937,8.776,0.519,5.293,8.239,1.124,0.548,0.396,6.5,-15.8,28.3,0.0,-24.6,19.3,-32.1,34.7,-32.8,-2.7,5.0,32.35,12.84155,77.6525,,936.2956543,,110.0,,0 / 0,1301,2017-10-05 18:59:06:355
1.67,5.937,8.776,0.519,5.293,8.239,1.124,0.548,0.396,14.1,-10.8,13.6,0.0,-24.6,19.3,-32.1,34.7,-32.8,-2.7,5.0,32.35,12.84155,77.6525,,936.2956543,,110.0,,0 / 0,1311,2017-10-05 18:59:06:365
2.237,5.602,9.124,0.584,5.356,8.194,1.617,0.156,0.784,18.5,-19.8,12.7,0.0,-24.1,19.1,-32.5,34.7,-32.8,-2.7,5.0,32.35,12.84155,77.6525,,936.2956543,,110.0,,0 / 0,1321,2017-10-05 18:59:06:375
2.237,5.602,9.124,0.584,5.356,8.194,1.617,0.156,0.784,18.5,-19.8,12.7,0.0,-24.1,19.1,-32.5,34.7,-32.8,-2.7,5.0,32.35,12.84155,77.6525,,936.2956543,,110.0,,0 / 0,1332,2017-10-05 18:59:06:386
0.808,6.863,9.243,0.683,5.412,8.15,0.113,1.341,0.945,18.5,-19.8,12.7,0.0,-23.9,19.2,-32.3,32.3,-33.1,-4.1,5.0,32.35,12.84155,77.6525,,936.2956543,,110.0,,0 / 0,1341,2017-10-05 18:59:06:395
1.326,6.629,8.891,0.76,5.432,8.129,0.545,1.091,0.619,13.2,-33.9,18.1,0.0,-23.9,19.2,-32.3,32.3,-33.1,-4.1,5.0,32.35,12.84155,77.6525,,936.2956543,,110.0,,0 / 0,1351,2017-10-05 18:59:06:405
1.326,6.629,8.891,0.76,5.432,8.129,0.545,1.091,0.619,13.2,-33.9,18.1,0.0,-23.9,19.2,-32.3,32.3,-33.1,-4.1,5.0,32.35,12.84155,77.6525,,936.2956543,,110.0,,0 / 0,1361,2017-10-05 18:59:06:415
1.359,6.481,8.988,0.908,5.486,8.078,0.429,0.891,0.766,11.8,-49.7,20.1,0.0,-23.9,19.0,-32.3,32.3,-33.1,-4.1,5.0,32.35,12.84155,77.6525,,936.2956543,,110.0,,0 / 0,1371,2017-10-05 18:59:06:425
1.359,6.481,8.988,0.908,5.486,8.078,0.429,0.891,0.766,14.4,-50.8,17.1,0.0,-23.9,19.0,-32.3,32.3,-33.1,-4.1,5.0,32.35,12.84155,77.6525,,936.2956543,,110.0,,0 / 0,1381,2017-10-05 18:59:06:435
1.909,6.434,8.33,1.098,5.544,8.014,0.78,0.787,0.182,14.4,-50.8,17.1,0.0,-24.1,19.1,-32.3,30.1,-34.0,-6.4,5.0,32.35,12.84155,77.6525,,936.2956543,,110.0,,0 / 0,1392,2017-10-05 18:59:06:446
1.909,6.434,8.33,1.098,5.544,8.014,0.78,0.787,0.182,14.4,-50.8,17.1,0.0,-24.1,19.1,-32.3,30.1,-34.0,-6.4,5.0,32.35,12.84155,77.6525,,936.2956543,,110.0,,0 / 0,1401,2017-10-05 18:59:06:455
2.777,6.931,7.302,1.172,5.629,7.944,1.561,1.19,-0.76,34.0,2.5,12.2,0.0,-24.0,19.4,-32.2,30.1,-34.0,-6.4,5.0,32.35,12.84155,77.6525,,936.2956543,,110.0,,0 / 0,1411,2017-10-05 18:59:06:465
2.777,6.931,7.302,1.172,5.629,7.944,1.561,1.19,-0.76,34.0,2.5,12.2,0.0,-24.0,19.4,-32.2,30.1,-34.0,-6.4,5.0,32.35,12.84155,77.6525,,936.2956543,,110.0,,0 / 0,1421,2017-10-05 18:59:06:475
2.227,7.153,7.047,1.258,5.698,7.882,0.933,1.341,-0.948,34.0,2.5,12.2,0.0,-24.1,19.4,-32.3,28.1,-35.0,-8.4,5.0,32.35,12.84155,77.6525,,936.2956543,,110.0,,0 / 0,1431,2017-10-05 18:59:06:485
2.227,7.153,7.047,1.258,5.698,7.882,0.933,1.341,-0.948,29.7,27.5,16.5,0.0,-24.1,19.4,-32.3,28.1,-35.0,-8.4,5.0,32.35,12.84155,77.6525,,936.2956543,,110.0,,0 / 0,1441,2017-10-05 18:59:06:495
2.61,6.211,7.775,1.227,5.785,7.823,1.34,0.326,-0.173,29.7,27.5,16.5,0.0,-24.1,19.4,-32.2,28.1,-35.0,-8.4,5.0,32.35,12.84155,77.6525,,936.2956543,,110.0,,0 / 0,1451,2017-10-05 18:59:06:505
2.61,6.211,7.775,1.227,5.785,7.823,1.34,0.326,-0.173,26.0,40.3,18.3,0.0,-24.1,19.4,-32.2,28.1,-35.0,-8.4,5.0,32.35,12.84155,77.6525,,936.2956543,,110.0,,0 / 0,1460,2017-10-05 18:59:06:514
2.61,6.211,7.775,1.227,5.785,7.823,1.34,0.326,-0.173,26.0,40.3,18.3,0.0,-24.1,19.4,-32.2,28.1,-35.0,-8.4,5.0,32.35,12.84155,77.6525,,936.2956543,,110.0,,0 / 0,1471,2017-10-05 18:59:06:525
2.165,6.176,8.934,1.23,5.929,7.714,0.9,0.148,1.077,34.6,50.6,15.8,0.0,-23.8,19.4,-32.1,27.4,-36.1,-8.9,5.0,32.35,12.84155,77.6525,,936.2956543,,110.0,,0 / 0,1481,2017-10-05 18:59:06:535
1.67,6.283,9.155,1.168,6.055,7.625,0.475,0.127,1.383,52.5,60.2,13.5,0.0,-24.0,19.6,-31.9,27.4,-36.1,-8.9,5.0,32.35,12.84155,77.6525,,936.2956543,,110.0,,0 / 0,1491,2017-10-05 18:59:06:545
0.422,5.054,6.71,1.107,6.12,7.582,-0.692,-1.147,-0.98,46.7,59.7,10.0,0.0,-24.1,19.4,-32.3,27.4,-36.1,-8.9,5.0,32.35,12.84155,77.6525,,936.2956543,,110.0,,0 / 0,1501,2017-10-05 18:59:06:555
0.422,5.054,6.71,1.107,6.12,7.582,-0.692,-1.147,-0.98,46.7,59.7,10.0,0.0,-24.1,19.4,-32.3,27.4,-36.1,-8.9,5.0,32.35,12.84155,77.6525,,936.2956543,,110.0,,0 / 0,1511,2017-10-05 18:59:06:565
0.422,5.054,6.71,1.107,6.12,7.582,-0.692,-1.147,-0.98,21.7,58.1,18.3,0.0,-24.1,19.4,-32.3,27.4,-36.1,-8.9,5.0,32.35,12.84155,77.6525,,936.2956543,,110.0,,0 / 0,1521,2017-10-05 18:59:06:575
0.639,5.88,5.857,0.988,6.205,7.53,-0.359,-0.42,-1.767,21.7,58.1,18.3,0.0,-23.7,19.2,-32.8,26.9,-38.6,-8.3,5.0,32.35,12.84155,77.6525,,936.2956543,,110.0,,0 / 0,1531,2017-10-05 18:59:06:585
-0.495,5.858,5.836,0.866,6.165,7.577,-1.353,-0.401,-1.834,-2.1,65.3,29.1,0.0,-23.5,19.1,-32.8,26.9,-38.6,-8.3,5.0,32.35,12.84155,77.6525,,936.2956543,,110.0,,0 / 0,1541,2017-10-05 18:59:06:595
0.0,5.447,7.132,0.821,6.186,7.565,-0.821,-0.827,-0.548,-16.2,62.6,33.5,0.0,-23.5,19.1,-32.8,26.9,-38.6,-8.3,5.0,32.35,12.84155,77.6525,,936.2956543,,110.0,,0 / 0,1551,2017-10-05 18:59:06:605
0.0,5.447,7.132,0.821,6.186,7.565,-0.821,-0.827,-0.548,-16.2,62.6,33.5,0.0,-23.5,19.1,-32.8,26.9,-38.6,-8.3,5.0,32.35,12.84155,77.6525,,936.2956543,,110.0,,0 / 0,1561,2017-10-05 18:59:06:615
0.132,4.657,6.567,0.776,6.092,7.646,-0.646,-1.509,-1.184,-42.3,51.3,38.5,0.0,-23.2,18.9,-33.1,27.5,-39.1,-6.2,5.0,32.35,12.84155,77.6525,,936.2956543,,110.0,,0 / 0,1571,2017-10-05 18:59:06:625
1.152,4.518,8.389,0.722,6.067,7.671,0.411,-1.621,0.583,-66.6,42.8,28.8,0.0,-22.7,18.6,-33.2,27.5,-39.1,-6.2,5.0,41.51,12.84155,77.6525,,936.2956543,,110.0,,0 / 0,1581,2017-10-05 18:59:06:635
1.152,4.518,8.389,0.722,6.067,7.671,0.411,-1.621,0.583,-66.6,42.8,28.8,0.0,-22.7,18.6,-33.2,27.5,-39.1,-6.2,5.0,41.51,12.84155,77.6525,,936.2956543,,110.0,,0 / 0,1591,2017-10-05 18:59:06:645
0.972,4.401,8.641,0.671,5.884,7.816,0.286,-1.554,0.686,-83.3,25.7,8.5,0.0,-22.4,18.7,-33.7,27.5,-39.1,-6.2,5.0,41.51,12.84155,77.6525,,936.2956543,,110.0,,0 / 0,1601,2017-10-05 18:59:06:655
0.972,4.401,8.641,0.671,5.884,7.816,0.286,-1.554,0.686,-83.3,25.7,8.5,0.0,-22.4,18.7,-33.7,27.5,-39.1,-6.2,5.0,41.51,12.84155,77.6525,,936.2956543,,110.0,,0 / 0,1611,2017-10-05 18:59:06:665
0.972,4.401,8.641,0.639,5.811,7.873,0.318,-1.481,0.629,-83.3,25.7,8.5,0.0,-22.4,18.7,-33.7,27.8,-36.3,-4.6,5.0,41.51,12.84155,77.6525,,936.2956543,,110.0,,0 / 0,1621,2017-10-05 18:59:06:675
0.875,5.427,6.69,0.682,5.503,8.089,0.18,-0.162,-1.506,-112.8,-48.5,-17.9,0.0,-21.8,18.6,-34.2,27.8,-36.3,-4.6,5.0,41.51,12.84155,77.6525,,936.2956543,,110.0,,0 / 0,1631,2017-10-05 18:59:06:685
0.875,5.427,6.69,0.661,5.35,8.192,0.201,-0.01,-1.609,-112.8,-48.5,-17.9,0.0,-21.4,18.9,-34.6,27.8,-36.3,-4.6,5.0,41.51,12.84155,77.6525,,936.2956543,,110.0,,0 / 0,1641,2017-10-05 18:59:06:695
0.875,5.427,6.69,0.661,5.35,8.192,0.201,-0.01,-1.609,-124.3,-66.0,-11.7,0.0,-21.4,18.9,-34.6,27.8,-36.3,-4.6,5.0,41.51,12.84155,77.6525,,936.2956543,,110.0,,0 / 0,1651,2017-10-05 18:59:06:705
2.06,5.876,7.459,0.842,4.925,8.438,1.185,0.856,-1.099,-124.3,-66.0,-11.7,0.0,-21.1,19.6,-34.6,26.3,-33.1,-4.6,5.0,41.51,12.84155,77.6525,,936.2956543,,110.0,,0 / 0,1661,2017-10-05 18:59:06:715
2.06,5.876,7.459,0.842,4.925,8.438,1.185,0.856,-1.099,-124.3,-66.0,-11.7,0.0,-21.1,19.6,-34.6,26.3,-33.1,-4.6,5.0,41.51,12.84155,77.6525,,936.2956543,,110.0,,0 / 0,1672,2017-10-05 18:59:06:726
1.957,5.331,10.353,0.975,4.73,8.535,0.95,0.515,1.651,-64.3,-44.8,0.3,0.0,-20.9,20.2,-34.2,26.3,-33.1,-4.6,5.0,41.51,12.84155,77.6525,,936.2956543,,110.0,,0 / 0,1681,2017-10-05 18:59:06:735
1.957,5.331,10.353,1.048,4.655,8.568,0.877,0.59,1.619,-64.3,-44.8,0.3,0.0,-20.9,20.2,-34.2,26.3,-33.1,-4.6,5.0,41.51,12.84155,77.6525,,936.2956543,,110.0,,0 / 0,1691,2017-10-05 18:59:06:745
1.957,5.331,10.353,1.048,4.655,8.568,0.877,0.59,1.619,-31.1,-38.4,-7.5,0.0,-20.9,20.2,-34.2,26.3,-33.1,-4.6,5.0,41.51,12.84155,77.6525,,936.2956543,,110.0,,0 / 0,1701,2017-10-05 18:59:06:755
2.748,4.986,10.66,1.259,4.535,8.603,1.445,0.371,1.885,-31.1,-38.4,-7.5,0.0,-20.8,21.2,-33.9,24.0,-27.5,-8.3,5.0,41.51,12.84155,77.6525,,936.2956543,,110.0,,0 / 0,1711,2017-10-05 18:59:06:765
2.748,4.986,10.66,1.259,4.535,8.603,1.445,0.371,1.885,-31.1,-38.4,-7.5,0.0,-20.8,21.2,-33.9,24.0,-27.5,-8.3,5.0,41.51,12.84155,77.6525,,936.2956543,,110.0,,0 / 0,1720,2017-10-05 18:59:06:774
2.01,3.11,9.984,1.396,4.528,8.586,0.582,-1.468,1.238,-29.5,-80.4,-33.1,0.0,-21.1,22.2,-33.6,24.0,-27.5,-8.3,5.0,41.51,12.84155,77.6525,,936.2956543,,110.0,,0 / 0,1732,2017-10-05 18:59:06:786
2.01,3.11,9.984,1.396,4.528,8.586,0.582,-1.468,1.238,-36.7,-104.7,-49.9,0.0,-21.1,22.2,-33.6,24.0,-27.5,-8.3,5.0,41.51,12.84155,77.6525,,936.2956543,,110.0,,0 / 0,1741,2017-10-05 18:59:06:795
-1.494,3.295,6.729,1.719,4.328,8.63,-3.189,-1.086,-2.01,-38.5,-66.5,-46.8,0.0,-21.4,23.1,-33.1,22.6,-27.5,-9.2,5.0,41.51,12.84155,77.6525,,936.2956543,,110.0,,0 / 0,1751,2017-10-05 18:59:06:805
-1.494,3.295,6.729,1.719,4.328,8.63,-3.189,-1.086,-2.01,-38.5,-66.5,-46.8,0.0,-21.4,23.1,-33.1,22.6,-27.5,-9.2,5.0,41.51,12.84155,77.6525,,936.2956543,,110.0,,0 / 0,1761,2017-10-05 18:59:06:815
-0.254,3.739,7.212,1.77,4.174,8.696,-2.019,-0.495,-1.6,-37.2,14.0,-27.0,0.0,-21.5,23.8,-32.3,22.6,-27.5,-9.2,5.0,41.51,12.84155,77.6525,,936.2956543,,110.0,,0 / 0,1771,2017-10-05 18:59:06:825
-0.254,3.739,7.212,1.77,4.174,8.696,-2.019,-0.495,-1.6,-24.8,78.5,-12.3,0.0,-21.5,23.8,-32.3,22.6,-27.5,-9.2,5.0,41.51,12.84155,77.6525,,936.2956543,,110.0,,0 / 0,1780,2017-10-05 18:59:06:834
1.909,4.44,9.502,1.607,4.066,8.778,0.271,0.303,0.571,-24.8,78.5,-12.3,0.0,-22.2,24.7,-31.2,22.3,-25.2,-11.5,5.0,41.51,12.84155,77.6525,,936.2956543,,110.0,,0 / 0,1792,2017-10-05 18:59:06:846
1.909,4.44,9.502,1.607,4.066,8.778,0.271,0.303,0.571,2.9,123.5,-15.0,0.0,-22.2,24.7,-31.2,22.3,-25.2,-11.5,5.0,41.51,12.84155,77.6525,,936.2956543,,110.0,,0 / 0,1801,2017-10-05 18:59:06:855
3.235,4.926,10.778,1.006,4.094,8.854,2.177,0.754,1.751,2.9,123.5,-15.0,0.0,-22.7,25.1,-30.0,22.3,-25.2,-11.5,5.0,41.51,12.84155,77.6525,,936.2956543,,110.0,,0 / 0,1811,2017-10-05 18:59:06:865
3.235,4.926,10.778,1.006,4.094,8.854,2.177,0.754,1.751,32.0,149.7,-21.5,0.0,-22.7,25.1,-30.0,22.3,-25.2,-11.5,5.0,41.51,12.84155,77.6525,,936.2956543,,110.0,,0 / 0,1821,2017-10-05 18:59:06:875
0.598,6.185,9.856,0.631,4.182,8.848,-0.043,1.903,0.85,49.0,135.6,-23.7,0.0,-23.0,25.3,-28.8,28.7,-24.7,-6.5,5.0,41.51,12.84155,77.6525,,936.2956543,,110.0,,0 / 0,1831,2017-10-05 18:59:06:885
0.598,6.185,9.856,0.631,4.182,8.848,-0.043,1.903,0.85,49.0,135.6,-23.7,0.0,-23.0,25.3,-28.8,28.7,-24.7,-6.5,5.0,41.51,12.84155,77.6525,,936.2956543,,110.0,,0 / 0,1840,2017-10-05 18:59:06:894
-1.542,6.731,6.269,0.354,4.237,8.837,-1.871,2.386,-2.668,49.0,135.6,-23.7,0.0,-23.1,25.6,-28.2,28.7,-24.7,-6.5,5.0,41.51,12.84155,77.6525,,936.2956543,,110.0,,0 / 0,1851,2017-10-05 18:59:06:905
-1.542,6.731,6.269,0.354,4.237,8.837,-1.871,2.386,-2.668,33.8,91.5,-26.3,0.0,-23.1,25.6,-28.2,28.7,-24.7,-6.5,5.0,41.51,12.84155,77.6525,,936.2956543,,110.0,,0 / 0,1861,2017-10-05 18:59:06:915
-2.469,6.254,4.972,0.268,4.27,8.824,-2.697,1.884,-3.932,33.8,91.5,-26.3,0.0,-23.2,25.2,-28.0,32.0,-25.6,-2.3,5.0,41.51,12.84155,77.6525,,936.2956543,,110.0,,0 / 0,1871,2017-10-05 18:59:06:925
-2.469,6.254,4.972,0.268,4.27,8.824,-2.697,1.884,-3.932,-8.7,37.0,-17.0,0.0,-23.2,25.2,-28.0,32.0,-25.6,-2.3,5.0,41.51,12.84155,77.6525,,936.2956543,,110.0,,0 / 0,1881,2017-10-05 18:59:06:935
-1.335,4.839,6.434,0.077,4.255,8.835,-1.39,0.506,-2.504,-53.0,3.7,-5.2,0.0,-22.8,24.8,-27.7,32.0,-25.6,-2.3,5.0,51.69,12.84155,77.6525,,936.2956543,,110.0,,0 / 0,1891,2017-10-05 18:59:06:945
-1.335,4.839,6.434,0.077,4.255,8.835,-1.39,0.506,-2.504,-53.0,3.7,-5.2,0.0,-22.8,24.8,-27.7,32.0,-25.6,-2.3,5.0,51.69,12.84155,77.6525,,936.2956543,,110.0,,0 / 0,1901,2017-10-05 18:59:06:955
0.539,4.986,9.934,0.034,4.195,8.864,0.67,0.642,0.945,-58.3,21.2,-4.1,0.0,-22.3,24.4,-27.8,33.0,-25.3,-0.2,5.0,51.69,12.84155,77.6525,,936.2956543,,110.0,,0 / 0,1911,2017-10-05 18:59:06:965
0.539,4.986,9.934,-0.303,4.297,8.81,0.67,0.642,0.945,-32.4,40.9,3.8,0.0,-22.3,24.4,-27.8,33.0,-25.3,-0.2,5.0,51.69,12.84155,77.6525,,936.2956543,,110.0,,0 / 0,1922,2017-10-05 18:59:06:976
0.539,4.986,9.934,-0.303,4.297,8.81,0.67,0.642,0.945,-32.4,40.9,3.8,0.0,-22.3,24.4,-27.8,33.0,-25.3,-0.2,5.0,51.69,12.84155,77.6525,,936.2956543,,110.0,,0 / 0,1931,2017-10-05 18:59:06:985
-2.386,2.247,8.653,-0.491,4.26,8.819,-1.868,-2.141,-0.261,-18.5,58.0,18.5,0.0,-21.9,24.0,-27.7,33.0,-25.3,-0.2,5.0,51.69,12.84155,77.6525,,936.2956543,,110.0,,0 / 0,1942,2017-10-05 18:59:06:996
-1.168,2.092,8.275,-0.491,4.26,8.819,-0.56,-2.168,-0.687,-18.5,58.0,18.5,0.0,-21.4,23.9,-27.8,34.1,-25.7,3.2,5.0,51.69,12.84155,77.6525,,936.2956543,,110.0,,0 / 0,1951,2017-10-05 18:59:07:005
-1.168,2.092,8.275,-0.689,4.193,8.838,-0.56,-2.168,-0.687,-22.5,97.4,34.6,0.0,-21.4,23.9,-27.8,34.1,-25.7,3.2,5.0,51.69,12.84155,77.6525,,936.2956543,,110.0,,0 / 0,1962,2017-10-05 18:59:07:016
-1.168,2.092,8.275,-0.689,4.193,8.838,-0.56,-2.168,-0.687,-22.5,97.4,34.6,0.0,-21.4,23.9,-27.8,34.1,-25.7,3.2,5.0,51.69,12.84155,77.6525,,936.2956543,,110.0,,0 / 0,1971,2017-10-05 18:59:07:025
-0.323,3.046,9.287,-0.86,4.142,8.848,0.542,-1.144,0.29,-14.4,136.5,32.7,0.0,-20.8,23.9,-28.4,34.1,-25.7,3.2,5.0,51.69,12.84155,77.6525,,936.2956543,,110.0,,0 / 0,1980,2017-10-05 18:59:07:034
-0.454,3.662,9.056,-1.369,4.052,8.825,0.922,-0.449,0.086,-8.8,159.9,36.9,0.0,-20.0,24.2,-29.1,34.4,-25.0,5.6,5.0,51.69,12.84155,77.6525,,936.2956543,,110.0,,0 / 0,1991,2017-10-05 18:59:07:045
-0.454,3.662,9.056,-1.369,4.052,8.825,0.922,-0.449,0.086,-20.0,173.1,43.5,0.0,-20.0,24.2,-29.1,34.4,-25.0,5.6,5.0,51.69,12.84155,77.6525,,936.2956543,,110.0,,0 / 0,2001,2017-10-05 18:59:07:055
-0.774,3.979,7.943,-1.734,3.917,8.821,0.973,-0.002,-1.006,-20.0,173.1,43.5,0.0,-19.6,24.4,-29.4,34.4,-25.0,5.6,5.0,51.69,12.84155,77.6525,,936.2956543,,110.0,,0 / 0,2011,2017-10-05 18:59:07:065
-0.774,3.979,7.943,-1.734,3.917,8.821,0.973,-0.002,-1.006,-44.8,168.4,41.6,0.0,-19.6,24.4,-29.4,34.4,-25.0,5.6,5.0,51.69,12.84155,77.6525,,936.2956543,,110.0,,0 / 0,2021,2017-10-05 18:59:07:075
-1.207,3.874,8.712,-2.146,3.817,8.775,0.959,-0.005,-0.203,-44.8,168.4,41.6,0.0,-18.7,24.9,-29.7,36.3,-23.5,11.1,5.0,51.69,12.84155,77.6525,,936.2956543,,110.0,,0 / 0,2031,2017-10-05 18:59:07:085
-1.207,3.874,8.712,-2.146,3.817,8.775,0.959,-0.005,-0.203,-66.9,159.4,36.1,0.0,-18.7,24.9,-29.7,36.3,-23.5,11.1,5.0,51.69,12.84155,77.6525,,936.2956543,,110.0,,0 / 0,2041,2017-10-05 18:59:07:095
-1.805,1.648,10.122,-2.532,3.593,8.766,0.756,-1.972,1.193,-82.6,160.2,24.3,0.0,-17.9,25.3,-29.7,36.3,-23.5,11.1,5.0,51.69,12.84155,77.6525,,936.2956543,,110.0,,0 / 0,2051,2017-10-05 18:59:07:105
-1.805,1.648,10.122,-2.532,3.593,8.766,0.756,-1.972,1.193,-82.6,160.2,24.3,0.0,-17.9,25.3,-29.7,36.3,-23.5,11.1,5.0,51.69,12.84155,77.6525,,936.2956543,,110.0,,0 / 0,2061,2017-10-05 18:59:07:115
-1.666,0.984,11.873,-2.966,3.407,8.704,1.327,-2.439,2.978,-93.0,163.9,4.8,0.0,-17.1,26.0,-29.9,36.7,-21.5,16.1,5.0,51.69,12.84155,77.6525,,936.2956543,,110.0,,0 / 0,2072,2017-10-05 18:59:07:126
-1.666,0.984,11.873,-2.966,3.407,8.704,1.327,-2.439,2.978,-93.0,163.9,4.8,0.0,-17.1,26.0,-29.9,36.7,-21.5,16.1,5.0,51.69,12.84155,77.6525,,936.2956543,,110.0,,0 / 0,2080,2017-10-05 18:59:07:134
-2.5,0.88,12.893,-3.332,3.086,8.692,0.872,-2.219,3.994,-96.5,147.5,-18.8,0.0,-16.0,26.6,-30.0,36.7,-21.5,16.1,5.0,51.69,12.84155,77.6525,,936.2956543,,110.0,,0 / 0,2091,2017-10-05 18:59:07:145
-2.5,0.88,12.893,-3.332,3.086,8.692,0.872,-2.219,3.994,-93.3,113.5,-30.4,0.0,-16.0,26.6,-30.0,36.7,-21.5,16.1,5.0,51.69,12.84155,77.6525,,936.2956543,,110.0,,0 / 0,2101,2017-10-05 18:59:07:155
-4.062,0.637,12.922,-3.556,2.658,8.744,-0.441,-2.03,3.97,-93.3,113.5,-30.4,0.0,-14.6,27.1,-30.2,37.1,-18.3,21.0,5.0,51.69,12.84155,77.6525,,936.2956543,,110.0,,0 / 0,2111,2017-10-05 18:59:07:165
-4.062,0.637,12.922,-3.556,2.658,8.744,-0.441,-2.03,3.97,-83.9,89.8,-30.9,0.0,-14.6,27.1,-30.2,37.1,-18.3,21.0,5.0,51.69,12.84155,77.6525,,936.2956543,,110.0,,0 / 0,2121,2017-10-05 18:59:07:175
-4.434,0.138,12.004,-3.682,2.26,8.804,-0.681,-2.125,3.008,-83.9,89.8,-30.9,0.0,-13.0,27.6,-29.9,37.1,-18.3,21.0,5.0,51.69,12.84155,77.6525,,936.2956543,,110.0,,0 / 0,2131,2017-10-05 18:59:07:185
-4.434,0.138,12.004,-3.682,2.26,8.804,-0.681,-2.125,3.008,-67.8,92.3,-28.1,0.0,-13.0,27.6,-29.9,37.1,-18.3,21.0,5.0,51.69,12.84155,77.6525,,936.2956543,,110.0,,0 / 0,2142,2017-10-05 18:59:07:196
-3.112,1.035,10.74,-3.836,1.873,8.829,0.774,-0.855,1.739,-67.8,92.3,-28.1,0.0,-11.8,28.0,-29.5,34.5,-13.3,22.7,5.0,51.69,12.84155,77.6525,,936.2956543,,110.0,,0 / 0,2151,2017-10-05 18:59:07:205
-3.112,1.035,10.74,-3.836,1.873,8.829,0.774,-0.855,1.739,-58.4,87.2,-36.1,0.0,-11.8,28.0,-29.5,34.5,-13.3,22.7,5.0,51.69,12.84155,77.6525,,936.2956543,,110.0,,0 / 0,2161,2017-10-05 18:59:07:215
-3.69,0.842,10.644,-3.991,1.539,8.825,0.361,-0.711,1.649,-57.6,75.9,-51.5,0.0,-10.1,28.6,-28.9,34.5,-13.3,22.7,5.0,51.69,12.84155,77.6525,,936.2956543,,110.0,,0 / 0,2171,2017-10-05 18:59:07:225
-3.69,0.842,10.644,-3.991,1.539,8.825,0.361,-0.711,1.649,-57.6,75.9,-51.5,0.0,-10.1,28.6,-28.9,34.5,-13.3,22.7,5.0,51.69,12.84155,77.6525,,936.2956543,,110.0,,0 / 0,2181,2017-10-05 18:59:07:235
-5.189,0.7,11.224,-4.188,1.241,8.78,-0.918,-0.552,2.264,-51.1,74.5,-60.4,0.0,-9.0,29.0,-28.1,32.7,-7.3,25.5,5.0,51.69,12.84155,77.6525,,936.2956543,,110.0,,0 / 0,2191,2017-10-05 18:59:07:245
-5.189,0.7,11.224,-4.188,1.241,8.78,-0.918,-0.552,2.264,-33.0,75.6,-60.0,0.0,-9.0,29.0,-28.1,32.7,-7.3,25.5,5.0,46.86,12.84155,77.6525,,936.2956543,,110.0,,0 / 0,2201,2017-10-05 18:59:07:255
-5.189,0.7,11.224,-4.188,1.241,8.78,-0.918,-0.552,2.264,-33.0,75.6,-60.0,0.0,-9.0,29.0,-28.1,32.7,-7.3,25.5,5.0,46.86,12.84155,77.6525,,936.2956543,,110.0,,0 / 0,2211,2017-10-05 18:59:07:265
-5.911,1.066,11.399,-4.368,0.983,8.725,-1.448,0.065,2.491,-33.0,75.6,-60.0,0.0,-7.9,29.4,-27.5,32.7,-7.3,25.5,5.0,46.86,12.84155,77.6525,,936.2956543,,110.0,,0 / 0,2221,2017-10-05 18:59:07:275
-6.023,1.406,10.698,-4.547,0.833,8.649,-1.379,0.551,1.878,-14.0,75.5,-56.5,0.0,-7.0,29.9,-26.6,29.9,-5.8,26.6,5.0,46.86,12.84155,77.6525,,936.2956543,,110.0,,0 / 0,2231,2017-10-05 18:59:07:285
-6.023,1.406,10.698,-4.547,0.833,8.649,-1.379,0.551,1.878,-5.2,67.4,-54.8,0.0,-7.0,29.9,-26.6,29.9,-5.8,26.6,5.0,46.86,12.84155,77.6525,,936.2956543,,110.0,,0 / 0,2241,2017-10-05 18:59:07:295
-5.693,2.141,8.849,-4.763,0.691,8.544,-0.838,1.415,0.163,-4.2,57.9,-55.6,0.0,-6.5,30.5,-25.6,29.9,-5.8,26.6,5.0,46.86,12.84155,77.6525,,936.2956543,,110.0,,0 / 0,2251,2017-10-05 18:59:07:305
-5.693,2.141,8.849,-4.763,0.691,8.544,-0.838,1.415,0.163,-4.2,57.9,-55.6,0.0,-6.5,30.5,-25.6,29.9,-5.8,26.6,5.0,46.86,12.84155,77.6525,,936.2956543,,110.0,,0 / 0,2261,2017-10-05 18:59:07:315
-6.434,2.746,8.339,-4.974,0.57,8.432,-1.357,2.132,-0.228,-6.9,48.8,-51.8,0.0,-6.1,31.1,-24.7,28.4,-4.0,29.1,5.0,46.86,12.84155,77.6525,,936.2956543,,110.0,,0 / 0,2271,2017-10-05 18:59:07:325
-6.434,2.746,8.339,-4.974,0.57,8.432,-1.357,2.132,-0.228,-6.9,48.8,-51.8,0.0,-6.1,31.1,-24.7,28.4,-4.0,29.1,5.0,46.86,12.84155,77.6525,,936.2956543,,110.0,,0 / 0,2281,2017-10-05 18:59:07:335
-6.899,2.618,8.005,-5.13,0.471,8.345,-1.658,2.105,-0.468,-6.9,48.8,-51.8,0.0,-5.9,31.4,-24.1,28.4,-4.0,29.1,5.0,46.86,12.84155,77.6525,,936.2956543,,110.0,,0 / 0,2291,2017-10-05 18:59:07:345
-6.899,2.618,8.005,-5.13,0.471,8.345,-1.658,2.105,-0.468,-11.4,40.7,-41.5,0.0,-5.9,31.4,-24.1,28.4,-4.0,29.1,5.0,46.86,12.84155,77.6525,,936.2956543,,110.0,,0 / 0,2301,2017-10-05 18:59:07:355
-6.89,2.648,7.894,-5.284,0.394,8.252,-1.496,2.212,-0.485,-18.2,29.8,-30.1,0.0,-5.9,31.7,-23.6,28.3,-2.8,31.6,5.0,46.86,12.84155,77.6525,,936.2956543,,110.0,,0 / 0,2311,2017-10-05 18:59:07:365
-6.89,2.648,7.894,-5.284,0.394,8.252,-1.496,2.212,-0.485,-18.2,29.8,-30.1,0.0,-5.9,31.7,-23.6,28.3,-2.8,31.6,5.0,46.86,12.84155,77.6525,,936.2956543,,110.0,,0 / 0,2321,2017-10-05 18:59:07:375
-6.842,2.628,7.857,-5.429,0.317,8.161,-1.303,2.269,-0.43,-28.2,13.2,-16.7,0.0,-6.0,32.0,-23.3,28.3,-2.8,31.6,5.0,46.86,12.84155,77.6525,,936.2956543,,110.0,,0 / 0,2332,2017-10-05 18:59:07:386
-6.842,2.628,7.857,-5.429,0.317,8.161,-1.303,2.269,-0.43,-36.9,-1.3,-3.4,0.0,-6.0,32.0,-23.3,28.3,-2.8,31.6,5.0,46.86,12.84155,77.6525,,936.2956543,,110.0,,0 / 0,2341,2017-10-05 18:59:07:395
-5.248,1.918,8.38,-5.514,0.253,8.105,0.351,1.634,0.14,-35.3,-2.7,5.7,0.0,-6.0,32.4,-23.1,28.6,-1.9,33.6,5.0,46.86,12.84155,77.6525,,936.2956543,,110.0,,0 / 0,2351,2017-10-05 18:59:07:405
-5.248,1.918,8.38,-5.514,0.253,8.105,0.351,1.634,0.14,-35.3,-2.7,5.7,0.0,-6.0,32.4,-23.1,28.6,-1.9,33.6,5.0,46.86,12.84155,77.6525,,936.2956543,,110.0,,0 / 0,2361,2017-10-05 18:59:07:415
-5.248,1.918,8.38,-5.514,0.253,8.105,0.351,1.634,0.14,-35.3,-2.7,5.7,0.0,-6.0,32.4,-23.1,28.6,-1.9,33.6,5.0,46.86,12.84155,77.6525,,936.2956543,,110.0,,0 / 0,2371,2017-10-05 18:59:07:425
-4.814,1.216,7.914,-5.626,0.206,8.03,0.889,0.991,-0.243,-26.3,10.7,7.1,0.0,-6.3,32.6,-22.7,28.6,-1.9,33.6,5.0,46.86,12.84155,77.6525,,936.2956543,,110.0,,0 / 0,2381,2017-10-05 18:59:07:435
-5.401,0.843,7.804,-5.699,0.181,7.979,0.385,0.649,-0.3,-16.2,31.1,3.6,0.0,-6.5,32.8,-22.4,28.0,-1.1,35.5,5.0,46.86,12.84155,77.6525,,936.2956543,,110.0,,0 / 0,2392,2017-10-05 18:59:07:446
-5.401,0.843,7.804,-5.699,0.181,7.979,0.385,0.649,-0.3,-16.2,31.1,3.6,0.0,-6.5,32.8,-22.4,28.0,-1.1,35.5,5.0,46.86,12.84155,77.6525,,936.2956543,,110.0,,0 / 0,2401,2017-10-05 18:59:07:455
-6.231,0.91,7.575,-5.808,0.18,7.9,-0.323,0.715,-0.446,-15.5,42.3,2.4,0.0,-6.6,32.9,-22.7,28.0,-1.1,35.5,5.0,46.86,12.84155,77.6525,,936.2956543,,110.0,,0 / 0,2411,2017-10-05 18:59:07:465
-6.231,0.91,7.575,-5.808,0.18,7.9,-0.323,0.715,-0.446,-29.7,35.5,1.3,0.0,-6.6,32.9,-22.7,28.0,-1.1,35.5,5.0,46.86,12.84155,77.6525,,936.2956543,,110.0,,0 / 0,2421,2017-10-05 18:59:07:475
-6.231,0.153,7.607,-5.808,0.18,7.9,-0.323,0.715,-0.446,-29.7,35.5,1.3,0.0,-6.8,33.0,-22.4,29.3,-1.1,36.3,5.0,46.86,12.84155,77.6525,,936.2956543,,110.0,,0 / 0,2431,2017-10-05 18:59:07:485
-6.943,0.153,7.607,-5.842,0.116,7.876,-0.989,0.034,-0.391,-46.2,20.2,2.9,0.0,-6.8,33.0,-22.4,29.3,-1.1,36.3,5.0,46.86,12.84155,77.6525,,936.2956543,,110.0,,0 / 0,2441,2017-10-05 18:59:07:495
-7.174,-0.134,8.254,-5.933,0.056,7.808,-0.989,0.034,-0.391,-46.2,20.2,2.9,0.0,-6.8,33.1,-22.3,29.3,-1.1,36.3,5.0,46.86,12.84155,77.6525,,936.2956543,,110.0,,0 / 0,2451,2017-10-05 18:59:07:505
-7.174,-0.134,8.254,-5.933,0.056,7.808,-1.126,-0.187,0.313,-46.2,20.2,2.9,0.0,-6.8,33.1,-22.3,29.3,-1.1,36.3,5.0,46.86,12.84155,77.6525,,936.2956543,,110.0,,0 / 0,2461,2017-10-05 18:59:07:515
-7.174,-0.134,8.254,-5.933,0.056,7.808,-1.126,-0.187,0.313,-49.8,13.6,5.2,0.0,-6.8,33.1,-22.3,29.3,-1.1,36.3,5.0,46.86,12.84155,77.6525,,936.2956543,,110.0,,0 / 0,2471,2017-10-05 18:59:07:525
-6.644,-0.853,9.244,-6.005,-0.047,7.753,-0.532,-0.793,1.343,-40.2,18.3,4.3,0.0,-6.9,33.4,-22.0,29.7,-0.3,37.2,5.0,46.86,12.84155,77.6525,,936.2956543,,110.0,,0 / 0,2482,2017-10-05 18:59:07:536
-6.644,-0.853,9.244,-6.005,-0.047,7.753,-0.532,-0.793,1.343,-40.2,18.3,4.3,0.0,-6.9,33.4,-22.0,29.7,-0.3,37.2,5.0,46.86,12.84155,77.6525,,936.2956543,,110.0,,0 / 0,2491,2017-10-05 18:59:07:545
-6.756,-0.773,8.529,-6.005,-0.047,7.753,-0.532,-0.793,1.343,-31.4,25.7,1.8,0.0,-6.8,33.4,-21.7,29.7,-0.3,37.2,5.0,46.86,12.84155,77.6525,,936.2956543,,110.0,,0 / 0,2501,2017-10-05 18:59:07:555
-6.756,-0.773,8.529,-6.144,-0.201,7.641,-0.504,-0.56,0.751,-31.4,25.7,1.8,0.0,-6.8,33.4,-21.7,29.7,-0.3,37.2,5.0,39.75,12.84155,77.6525,,936.2956543,,110.0,,0 / 0,2511,2017-10-05 18:59:07:565
-6.646,-0.969,7.91,-6.144,-0.201,7.641,-0.504,-0.56,0.751,-36.4,23.5,-5.1,0.0,-6.9,33.5,-21.4,29.7,-0.3,37.2,5.0,39.75,12.84155,77.6525,,936.2956543,,110.0,,0 / 0,2520,2017-10-05 18:59:07:574
-6.646,-0.969,7.91,-6.163,-0.349,7.62,-0.604,-0.971,0.773,-45.2,16.5,-14.9,0.0,-6.9,33.5,-21.4,29.7,-0.3,37.2,5.0,39.75,12.84155,77.6525,,936.2956543,,110.0,,0 / 0,2531,2017-10-05 18:59:07:585
-6.877,-1.342,8.53,-6.163,-0.349,7.62,-0.604,-0.971,0.773,-45.5,11.7,-23.8,0.0,-6.8,33.9,-20.9,29.1,2.0,39.0,5.0,39.75,12.84155,77.6525,,936.2956543,,110.0,,0 / 0,2541,2017-10-05 18:59:07:595
-7.237,-1.41,9.494,-6.197,-0.484,7.585,-0.924,-0.903,1.756,-45.5,11.7,-23.8,0.0,-6.8,33.9,-20.9,29.1,2.0,39.0,5.0,39.75,12.84155,77.6525,,936.2956543,,110.0,,0 / 0,2551,2017-10-05 18:59:07:605
-7.237,-1.41,9.494,-6.22,-0.653,7.554,-1.301,-0.495,1.95,-35.6,12.8,-24.8,0.0,-6.7,34.0,-20.5,29.1,2.0,39.0,5.0,39.75,12.84155,77.6525,,936.2956543,,110.0,,0 / 0,2561,2017-10-05 18:59:07:615
-7.237,-1.41,9.494,-6.22,-0.653,7.554,-1.301,-0.495,1.95,-35.6,12.8,-24.8,0.0,-6.7,34.0,-20.5,29.1,2.0,39.0,5.0,39.75,12.84155,77.6525,,936.2956543,,110.0,,0 / 0,2571,2017-10-05 18:59:07:625
-7.676,-1.119,9.398,-6.22,-0.653,7.554,-1.305,-0.385,1.722,-24.3,20.4,-20.9,0.0,-6.7,34.4,-20.0,28.6,3.8,39.5,5.0,39.75,12.84155,77.6525,,936.2956543,,110.0,,0 / 0,2581,2017-10-05 18:59:07:635
-7.676,-1.119,9.398,-6.269,-0.778,7.501,-0.862,-0.332,1.46,-17.5,27.6,-18.1,0.0,-6.8,34.6,-19.8,28.6,3.8,39.5,5.0,39.75,12.84155,77.6525,,936.2956543,,110.0,,0 / 0,2591,2017-10-05 18:59:07:645
-7.279,-1.179,9.075,-6.269,-0.778,7.501,-0.862,-0.332,1.46,-17.5,27.6,-18.1,0.0,-6.8,34.6,-19.8,28.6,3.8,39.5,5.0,39.75,12.84155,77.6525,,936.2956543,,110.0,,0 / 0,2601,2017-10-05 18:59:07:655
-7.279,-1.179,9.075,-6.308,-0.903,7.454,-0.862,-0.332,1.46,-14.2,29.6,-20.4,0.0,-6.8,34.6,-19.8,28.6,3.8,39.5,5.0,39.75,12.84155,77.6525,,936.2956543,,110.0,,0 / 0,2611,2017-10-05 18:59:07:665
-7.005,-1.137,9.061,-6.371,-0.985,7.39,-0.553,-0.174,1.493,-14.2,29.6,-20.4,0.0,-6.9,35.0,-18.9,27.4,5.3,40.2,5.0,39.75,12.84155,77.6525,,936.2956543,,110.0,,0 / 0,2621,2017-10-05 18:59:07:675
-7.005,-1.137,9.061,-6.371,-0.985,7.39,-0.553,-0.174,1.493,-8.9,30.6,-24.6,0.0,-6.9,35.0,-18.9,27.4,5.3,40.2,5.0,39.75,12.84155,77.6525,,936.2956543,,110.0,,0 / 0,2631,2017-10-05 18:59:07:685
-7.071,-1.05,9.122,-6.371,-0.985,7.39,-0.559,-0.006,1.615,-8.9,32.8,-28.1,0.0,-6.8,35.2,-18.5,27.4,5.3,40.2,5.0,39.75,12.84155,77.6525,,936.2956543,,110.0,,0 / 0,2641,2017-10-05 18:59:07:695
-7.071,-1.05,9.122,-6.431,-1.057,7.328,-0.559,-0.006,1.615,0.9,32.8,-28.1,0.0,-6.8,35.2,-18.5,27.4,5.3,40.2,5.0,39.75,12.84155,77.6525,,936.2956543,,110.0,,0 / 0,2651,2017-10-05 18:59:07:705
-6.999,-0.908,8.844,-6.431,-1.057,7.328,-0.424,0.194,1.407,13.6,39.8,-29.3,0.0,-7.2,35.4,-18.2,26.9,6.2,41.3,5.0,39.75,12.84155,77.6525,,936.2956543,,110.0,,0 / 0,2660,2017-10-05 18:59:07:714
-6.999,-0.908,8.844,-6.496,-1.107,7.263,-0.527,0.258,-0.22,13.6,39.8,-29.3,0.0,-7.2,35.4,-18.2,26.9,6.2,41.3,5.0,39.75,12.84155,77.6525,,936.2956543,,110.0,,0 / 0,2671,2017-10-05 18:59:07:725
-7.188,-0.861,7.113,-6.496,-1.107,7.263,-0.527,0.258,-0.22,24.1,52.0,-29.1,0.0,-7.5,35.7,-18.0,26.9,6.2,41.3,5.0,39.75,12.84155,77.6525,,936.2956543,,110.0,,0 / 0,2681,2017-10-05 18:59:07:735
-7.188,-0.861,7.113,-6.596,-1.104,7.173,-0.527,0.258,-0.22,24.1,52.0,-29.1,0.0,-7.5,35.7,-18.0,26.9,6.2,41.3,5.0,39.75,12.84155,77.6525,,936.2956543,,110.0,,0 / 0,2691,2017-10-05 18:59:07:745
-7.327,-0.893,6.382,-6.596,-1.104,7.173,-0.574,0.244,-0.854,27.7,63.1,-28.4,0.0,-7.3,35.8,-17.9,26.5,6.5,42.6,5.0,39.75,12.84155,77.6525,,936.2956543,,110.0,,0 / 0,2701,2017-10-05 18:59:07:755
-7.327,-0.893,6.382,-6.698,-1.116,7.075,-0.574,0.244,-0.854,29.3,71.8,-27.4,0.0,-7.3,35.8,-17.9,26.5,6.5,42.6,5.0,39.75,12.84155,77.6525,,936.2956543,,110.0,,0 / 0,2710,2017-10-05 18:59:07:764
-7.865,-1.387,6.35,-6.698,-1.116,7.075,-0.967,-0.26,-0.759,29.3,71.8,-27.4,0.0,-7.6,36.1,-17.9,26.5,6.5,42.6,5.0,39.75,12.84155,77.6525,,936.2956543,,110.0,,0 / 0,2721,2017-10-05 18:59:07:775
-7.865,-1.387,6.35,-6.85,-1.099,6.931,-0.406,-0.444,-0.441,29.3,71.8,-27.4,0.0,-7.7,36.1,-18.0,27.7,6.4,44.7,5.0,39.75,12.84155,77.6525,,936.2956543,,110.0,,0 / 0,2731,2017-10-05 18:59:07:785
-7.375,-1.568,6.596,-7.072,-1.05,6.713,0.637,-0.618,-0.414,58.8,99.8,-27.3,0.0,-7.7,36.2,-17.8,27.7,6.4,44.7,5.0,39.75,12.84155,77.6525,,936.2956543,,110.0,,0 / 0,2742,2017-10-05 18:59:07:796
-7.375,-1.568,6.596,-7.072,-1.05,6.713,0.637,-0.618,-0.414,58.8,99.8,-27.3,0.0,-7.7,36.2,-17.8,27.7,6.4,44.7,5.0,39.75,12.84155,77.6525,,936.2956543,,110.0,,0 / 0,2751,2017-10-05 18:59:07:805
-6.54,-1.695,6.401,-7.072,-1.05,6.713,0.637,-0.618,-0.414,58.8,99.8,-27.3,0.0,-7.7,36.2,-17.8,27.7,6.4,44.7,5.0,39.75,12.84155,77.6525,,936.2956543,,110.0,,0 / 0,2761,2017-10-05 18:59:07:815
-6.54,-1.695,6.401,-7.321,-1.009,6.446,1.455,-1.42,-0.751,88.8,126.1,-35.6,0.0,-7.6,36.2,-18.3,28.1,5.9,48.6,5.0,39.75,12.84155,77.6525,,936.2956543,,110.0,,0 / 0,2771,2017-10-05 18:59:07:825
-5.386,-2.582,4.857,-7.321,-1.009,6.446,1.455,-1.42,-0.751,115.4,148.9,-50.8,0.0,-7.6,36.2,-18.3,28.1,5.9,48.6,5.0,39.75,12.84155,77.6525,,936.2956543,,110.0,,0 / 0,2781,2017-10-05 18:59:07:835
-5.386,-2.582,4.857,-7.592,-0.93,6.137,2.293,-1.611,-1.359,115.4,148.9,-50.8,0.0,-7.6,36.1,-18.4,28.1,5.9,48.6,5.0,39.75,12.84155,77.6525,,936.2956543,,110.0,,0 / 0,2791,2017-10-05 18:59:07:845
-5.734,-2.415,3.482,-7.592,-0.93,6.137,2.293,-1.611,-1.359,126.3,168.0,-70.3,0.0,-7.6,36.1,-18.4,28.1,5.9,48.6,5.0,39.75,12.84155,77.6525,,936.2956543,,110.0,,0 / 0,2801,2017-10-05 18:59:07:855
-5.734,-2.415,3.482,-7.909,-0.861,5.734,2.267,-1.515,-2.309,126.3,168.0,-70.3,0.0,-7.4,35.9,-18.7,28.6,5.4,51.0,5.0,22.13,12.84155,77.6525,,936.2956543,,110.0,,0 / 0,2811,2017-10-05 18:59:07:865
-6.159,-2.04,1.458,-7.909,-0.861,5.734,2.267,-1.515,-2.309,108.2,158.5,-83.5,0.0,-7.4,35.9,-18.7,28.6,5.4,51.0,5.0,22.13,12.84155,77.6525,,936.2956543,,110.0,,0 / 0,2821,2017-10-05 18:59:07:875
-6.159,-2.04,1.458,-8.123,-0.923,5.416,2.063,-1.085,-4.86,63.0,116.1,-86.0,0.0,-7.3,35.6,-19.2,28.6,5.4,51.0,5.0,22.13,12.84155,77.6525,,936.2956543,,110.0,,0 / 0,2832,2017-10-05 18:59:07:886
-7.43,-2.42,0.565,-8.123,-0.923,5.416,2.063,-1.085,-4.86,63.0,116.1,-86.0,0.0,-7.3,35.6,-19.2,28.6,5.4,51.0,5.0,22.13,12.84155,77.6525,,936.2956543,,110.0,,0 / 0,2841,2017-10-05 18:59:07:895
-7.43,-2.42,0.565,-8.35,-1.001,5.045,0.615,-1.434,-1.594,35.0,105.8,-82.6,0.0,-7.4,35.2,-20.0,31.1,5.9,58.9,5.0,22.13,12.84155,77.6525,,936.2956543,,110.0,,0 / 0,2851,2017-10-05 18:59:07:905
-7.861,-2.475,3.507,-8.35,-1.001,5.045,0.615,-1.434,-1.594,36.5,106.8,-77.8,0.0,-7.4,35.2,-20.0,31.1,5.9,58.9,5.0,22.13,12.84155,77.6525,,936.2956543,,110.0,,0 / 0,2861,2017-10-05 18:59:07:915
-7.861,-2.475,3.507,-8.51,-1.182,4.728,0.195,-1.077,0.099,36.5,106.8,-77.8,0.0,-7.3,34.4,-20.6,31.1,5.9,58.9,5.0,22.13,12.84155,77.6525,,936.2956543,,110.0,,0 / 0,2871,2017-10-05 18:59:07:925
-8.451,-2.296,4.906,-8.51,-1.182,4.728,0.195,-1.077,0.099,40.1,90.2,-73.2,0.0,-7.3,34.4,-20.6,31.1,5.9,58.9,5.0,22.13,12.84155,77.6525,,936.2956543,,110.0,,0 / 0,2881,2017-10-05 18:59:07:935
-8.451,-2.296,4.906,-8.715,-1.357,4.287,-0.11,-1.259,1.251,40.1,90.2,-73.2,0.0,-7.2,33.7,-21.1,33.2,6.9,60.9,5.0,22.13,12.84155,77.6525,,936.2956543,,110.0,,0 / 0,2891,2017-10-05 18:59:07:945
-8.733,-2.082,5.069,-8.715,-1.357,4.287,-0.11,-1.259,1.251,31.8,59.0,-78.5,0.0,-7.2,33.7,-21.1,33.2,6.9,60.9,5.0,22.13,12.84155,77.6525,,936.2956543,,110.0,,0 / 0,2901,2017-10-05 18:59:07:955
-8.733,-2.082,5.069,-8.824,-1.556,3.987,0.231,-0.493,1.001,14.1,33.1,-82.0,0.0,-6.7,33.4,-21.8,33.2,6.9,60.9,5.0,22.13,12.84155,77.6525,,936.2956543,,110.0,,0 / 0,2911,2017-10-05 18:59:07:965
-9.726,-2.202,3.876,-8.824,-1.556,3.987,0.231,-0.493,1.001,14.1,33.1,-82.0,0.0,-6.7,33.4,-21.8,33.2,6.9,60.9,5.0,22.13,12.84155,77.6525,,936.2956543,,110.0,,0 / 0,2921,2017-10-05 18:59:07:975
-9.726,-2.202,3.876,-8.81,-1.783,3.922,-0.76,-0.384,-0.108,-0.4,32.9,-78.1,0.0,-6.7,32.6,-22.8,36.6,9.1,65.7,5.0,22.13,12.84155,77.6525,,936.2956543,,110.0,,0 / 0,2932,2017-10-05 18:59:07:986
-9.215,-2.089,3.369,-8.81,-1.783,3.922,-0.76,-0.384,-0.108,-0.4,32.9,-78.1,0.0,-6.7,32.6,-22.8,36.6,9.1,65.7,5.0,22.13,12.84155,77.6525,,936.2956543,,110.0,,0 / 0,2942,2017-10-05 18:59:07:996
-9.215,-2.089,3.369,-8.818,-1.997,3.798,0.012,-0.92,0.007,-1.4,53.8,-76.3,0.0,-6.8,31.8,-23.6,36.6,9.1,65.7,5.0,22.13,12.84155,77.6525,,936.2956543,,110.0,,0 / 0,2952,2017-10-05 18:59:08:006
-8.95,-2.965,3.868,-8.818,-1.997,3.798,0.012,-0.92,0.007,-1.4,53.8,-76.3,0.0,-6.8,31.8,-23.6,36.6,9.1,65.7,5.0,22.13,12.84155,77.6525,,936.2956543,,110.0,,0 / 0,2961,2017-10-05 18:59:08:015
-9.043,-2.537,3.749,-8.83,-2.228,3.638,-0.068,-0.268,0.051,5.0,83.6,-78.1,0.0,-7.1,31.3,-24.2,39.9,11.8,66.7,5.0,22.13,12.84155,77.6525,,936.2956543,,110.0,,0 / 0,2972,2017-10-05 18:59:08:026
-9.043,-2.537,3.749,-8.83,-2.228,3.638,-0.068,-0.268,0.051,-0.6,94.9,-81.6,0.0,-7.1,31.3,-24.2,39.9,11.8,66.7,5.0,22.13,12.84155,77.6525,,936.2956543,,110.0,,0 / 0,2982,2017-10-05 18:59:08:036
-9.585,-2.75,3.193,-8.881,-2.475,3.344,-0.55,-0.231,-0.202,-0.6,94.9,-81.6,0.0,-6.8,30.8,-24.6,39.9,11.8,66.7,5.0,22.13,12.84155,77.6525,,936.2956543,,110.0,,0 / 0,2991,2017-10-05 18:59:08:045
-9.585,-2.75,3.193,-8.881,-2.475,3.344,-0.55,-0.231,-0.202,-17.3,85.4,-83.7,0.0,-6.8,30.8,-24.6,39.9,11.8,66.7,5.0,22.13,12.84155,77.6525,,936.2956543,,110.0,,0 / 0,3002,2017-10-05 18:59:08:056
-9.74,-2.912,3.226,-8.879,-2.743,3.133,-0.705,-0.123,0.041,-17.3,85.4,-83.7,0.0,-6.9,30.5,-24.7,42.3,14.6,69.4,5.0,22.13,12.84155,77.6525,,936.2956543,,110.0,,0 / 0,3011,2017-10-05 18:59:08:065
-9.74,-2.912,3.226,-8.879,-2.743,3.133,-0.705,-0.123,0.041,-17.3,85.4,-83.7,0.0,-6.9,30.5,-24.7,42.3,14.6,69.4,5.0,22.13,12.84155,77.6525,,936.2956543,,110.0,,0 / 0,3021,2017-10-05 18:59:08:075
-9.704,-3.156,3.862,-8.874,-2.884,3.016,-0.674,-0.222,0.784,-29.9,67.8,-81.5,0.0,-6.9,30.5,-24.7,42.3,14.6,69.4,5.0,22.13,12.84155,77.6525,,936.2956543,,110.0,,0 / 0,3031,2017-10-05 18:59:08:085
-9.704,-3.156,3.862,-8.874,-2.884,3.016,-0.674,-0.222,0.784,-29.9,67.8,-81.5,0.0,-6.9,30.5,-24.7,42.3,14.6,69.4,5.0,22.13,12.84155,77.6525,,936.2956543,,110.0,,0 / 0,3041,2017-10-05 18:59:08:095
-9.178,-4.021,2.736,-8.858,-3.296,2.617,-0.173,-0.66,0.076,-30.5,67.3,-80.6,0.0,-7.2,30.2,-24.7,42.5,17.1,71.2,5.0,22.13,12.84155,77.6525,,936.2956543,,110.0,,0 / 0,3051,2017-10-05 18:59:08:105
-9.178,-4.021,2.736,-8.858,-3.296,2.617,-0.173,-0.66,0.076,-30.5,67.3,-76.5,0.0,-7.2,30.2,-24.7,42.5,17.1,71.2,5.0,22.13,12.84155,77.6525,,936.2956543,,110.0,,0 / 0,3062,2017-10-05 18:59:08:116
-9.11,-4.158,2.208,-8.828,-3.557,2.362,-0.136,-0.534,-0.19,-19.8,99.3,-76.5,0.0,-7.6,30.1,-24.7,42.5,17.1,71.2,5.0,22.13,12.84155,77.6525,,936.2956543,,110.0,,0 / 0,3072,2017-10-05 18:59:08:126
-9.11,-4.158,2.208,-8.828,-3.557,2.362,-0.136,-0.534,-0.19,-14.6,124.0,-79.0,0.0,-7.6,30.1,-24.7,42.5,17.1,71.2,5.0,22.13,12.84155,77.6525,,936.2956543,,110.0,,0 / 0,3082,2017-10-05 18:59:08:136
-8.597,-4.502,2.176,-8.795,-3.818,2.059,0.336,-0.612,0.082,-14.6,124.0,-79.0,0.0,-7.8,30.1,-24.3,41.5,21.3,75.0,5.0,22.13,12.84155,77.6525,,936.2956543,,110.0,,0 / 0,3091,2017-10-05 18:59:08:145
-8.597,-4.502,2.176,-8.795,-3.818,2.059,0.336,-0.612,0.082,-14.6,124.0,-79.0,0.0,-7.8,30.1,-24.3,41.5,21.3,75.0,5.0,22.13,12.84155,77.6525,,936.2956543,,110.0,,0 / 0,3101,2017-10-05 18:59:08:155
-8.732,-4.471,2.495,-8.766,-4.081,1.638,0.174,-0.318,0.817,-10.2,134.0,-84.3,0.0,-7.8,30.1,-24.1,41.5,21.3,75.0,5.0,22.13,12.84155,77.6525,,936.2956543,,110.0,,0 / 0,3110,2017-10-05 18:59:08:164
-8.732,-4.471,2.495,-8.766,-4.081,1.638,0.174,-0.318,0.817,-9.2,125.7,-94.3,0.0,-7.8,30.1,-24.1,41.5,21.3,75.0,5.0,26.37,12.84155,77.6525,,936.2956543,,110.0,,0 / 0,3121,2017-10-05 18:59:08:175
-7.992,-5.194,2.654,-8.687,-4.364,1.29,0.824,-0.747,1.321,-9.2,125.7,-94.3,0.0,-7.7,30.4,-23.9,41.1,24.6,79.4,5.0,26.37,12.84155,77.6525,,936.2956543,,110.0,,0 / 0,3132,2017-10-05 18:59:08:186
-7.049,-5.747,2.312,-8.622,-4.535,1.124,1.686,-1.119,1.151,-11.5,104.4,-112.2,0.0,-7.7,30.4,-23.9,41.1,24.6,79.4,5.0,26.37,12.84155,77.6525,,936.2956543,,110.0,,0 / 0,3142,2017-10-05 18:59:08:196
-7.049,-5.747,2.312,-8.622,-4.535,1.124,1.686,-1.119,1.151,-13.4,86.7,-131.1,0.0,-7.7,30.4,-23.9,41.1,24.6,79.4,5.0,26.37,12.84155,77.6525,,936.2956543,,110.0,,0 / 0,3152,2017-10-05 18:59:08:206
-7.187,-6.723,1.631,-8.462,-4.884,0.85,1.39,-1.731,0.755,-13.4,86.7,-131.1,0.0,-7.7,30.4,-23.9,41.1,24.6,79.4,5.0,26.37,12.84155,77.6525,,936.2956543,,110.0,,0 / 0,3163,2017-10-05 18:59:08:217
-7.187,-6.723,1.631,-8.462,-4.884,0.85,1.39,-1.731,0.755,-7.6,92.0,-138.2,0.0,-7.7,30.4,-23.9,41.1,24.6,79.4,5.0,26.37,12.84155,77.6525,,936.2956543,,110.0,,0 / 0,3171,2017-10-05 18:59:08:225
-8.719,-7.009,1.818,-8.264,-5.244,0.613,-0.315,-1.652,1.176,-7.6,92.0,-138.2,0.0,-7.7,30.7,-24.1,39.8,29.9,84.3,5.0,26.37,12.84155,77.6525,,936.2956543,,110.0,,0 / 0,3181,2017-10-05 18:59:08:235
-8.719,-7.009,1.818,-8.264,-5.244,0.613,-0.315,-1.652,1.176,20.5,126.3,-140.1,0.0,-7.7,30.7,-24.1,39.8,29.9,84.3,5.0,26.37,12.84155,77.6525,,936.2956543,,110.0,,0 / 0,3191,2017-10-05 18:59:08:245
-7.041,-7.87,1.985,-8.016,-5.637,0.376,1.088,-2.106,1.577,46.0,145.2,-148.3,0.0,-7.8,30.7,-24.1,39.8,29.9,84.3,5.0,26.37,12.84155,77.6525,,936.2956543,,110.0,,0 / 0,3201,2017-10-05 18:59:08:255
-7.041,-7.87,1.985,-8.016,-5.637,0.376,1.088,-2.106,1.577,46.0,145.2,-148.3,0.0,-7.8,30.7,-24.1,39.8,29.9,84.3,5.0,26.37,12.84155,77.6525,,936.2956543,,110.0,,0 / 0,3211,2017-10-05 18:59:08:265
-6.475,-7.287,1.208,-7.721,-6.044,0.17,1.35,-1.126,1.019,52.2,141.4,-162.6,0.0,-8.2,30.7,-24.3,39.7,35.1,87.3,5.0,26.37,12.84155,77.6525,,936.2956543,,110.0,,0 / 0,3221,2017-10-05 18:59:08:275
-6.475,-7.287,1.208,-7.721,-6.044,0.17,1.35,-1.126,1.019,52.2,141.4,-162.6,0.0,-8.2,30.7,-24.3,39.7,35.1,87.3,5.0,26.37,12.84155,77.6525,,936.2956543,,110.0,,0 / 0,3231,2017-10-05 18:59:08:285
-7.08,-9.163,0.435,-7.366,-6.474,-0.009,0.399,-2.541,0.437,40.7,124.1,-184.0,0.0,-8.6,30.3,-24.4,39.7,35.1,87.3,5.0,26.37,12.84155,77.6525,,936.2956543,,110.0,,0 / 0,3241,2017-10-05 18:59:08:295
-7.08,-9.163,0.435,-7.366,-6.474,-0.009,0.399,-2.541,0.437,30.9,108.6,-190.1,0.0,-8.6,30.3,-24.4,39.7,35.1,87.3,5.0,26.37,12.84155,77.6525,,936.2956543,,110.0,,0 / 0,3251,2017-10-05 18:59:08:305
-9.869,-8.887,1.487,-6.927,-6.941,-0.105,-2.784,-1.804,1.567,30.9,108.6,-190.1,0.0,-9.1,30.4,-24.5,40.1,41.3,90.1,5.0,26.37,12.84155,77.6525,,936.2956543,,110.0,,0 / 0,3261,2017-10-05 18:59:08:315
-9.869,-8.887,1.487,-6.755,-7.107,-0.175,-3.839,-0.482,3.163,30.9,108.6,-190.1,0.0,-9.7,30.4,-24.8,40.1,41.3,90.1,5.0,26.37,12.84155,77.6525,,936.2956543,,110.0,,0 / 0,3271,2017-10-05 18:59:08:325
-10.766,-7.713,3.037,-6.755,-7.107,-0.175,-3.839,-0.482,3.163,45.8,119.2,-167.1,0.0,-9.7,30.4,-24.8,40.1,41.3,90.1,5.0,26.37,12.84155,77.6525,,936.2956543,,110.0,,0 / 0,3281,2017-10-05 18:59:08:335
-10.766,-7.713,3.037,-6.354,-7.466,-0.234,-2.951,-0.298,4.057,76.8,133.0,-145.1,0.0,-10.5,30.0,-25.2,40.1,41.3,90.1,5.0,26.37,12.84155,77.6525,,936.2956543,,110.0,,0 / 0,3291,2017-10-05 18:59:08:345
-9.457,-7.891,3.886,-6.354,-7.466,-0.234,-2.951,-0.298,4.057,101.2,121.2,-137.4,0.0,-10.5,30.0,-25.2,40.1,41.3,90.1,5.0,26.37,12.84155,77.6525,,936.2956543,,110.0,,0 / 0,3301,2017-10-05 18:59:08:355
-9.457,-7.891,3.886,-5.91,-7.822,-0.222,-1.948,0.214,4.073,101.2,121.2,-137.4,0.0,-11.5,29.7,-25.6,41.1,49.6,92.1,5.0,26.37,12.84155,77.6525,,936.2956543,,110.0,,0 / 0,3311,2017-10-05 18:59:08:365
-8.594,-9.061,3.372,-5.91,-7.822,-0.222,-1.948,0.214,4.073,100.9,77.0,-145.0,0.0,-11.5,29.7,-25.6,41.1,49.6,92.1,5.0,26.37,12.84155,77.6525,,936.2956543,,110.0,,0 / 0,3321,2017-10-05 18:59:08:375
-8.594,-9.061,3.372,-5.508,-8.113,-0.054,-2.948,-0.802,3.371,89.8,29.0,-150.7,0.0,-12.3,29.2,-26.0,41.1,49.6,92.1,5.0,26.37,12.84155,77.6525,,936.2956543,,110.0,,0 / 0,3331,2017-10-05 18:59:08:385
-10.481,-9.83,2.968,-5.508,-8.113,-0.054,-2.948,-0.802,3.371,89.8,29.0,-150.7,0.0,-12.3,29.2,-26.0,41.1,49.6,92.1,5.0,26.37,12.84155,77.6525,,936.2956543,,110.0,,0 / 0,3341,2017-10-05 18:59:08:395
-10.481,-9.83,2.968,-5.088,-8.377,0.339,-5.224,-1.295,2.581,89.8,29.0,-150.7,0.0,-12.8,28.6,-26.4,43.5,55.8,90.6,5.0,26.37,12.84155,77.6525,,936.2956543,,110.0,,0 / 0,3351,2017-10-05 18:59:08:405
-11.984,-8.292,3.136,-5.088,-8.377,0.339,-5.224,-1.295,2.581,85.4,7.1,-137.0,0.0,-12.8,28.6,-26.4,43.5,55.8,90.6,5.0,26.37,12.84155,77.6525,,936.2956543,,110.0,,0 / 0,3362,2017-10-05 18:59:08:416
-11.984,-8.292,3.136,-4.743,-8.554,0.713,-7.95,1.076,1.891,93.4,3.6,-105.1,0.0,-13.4,27.6,-27.2,43.5,55.8,90.6,5.0,26.37,12.84155,77.6525,,936.2956543,,110.0,,0 / 0,3372,2017-10-05 18:59:08:426
-12.9,-7.599,2.647,-4.743,-8.554,0.713,-7.95,1.076,1.891,86.0,-22.5,-68.6,0.0,-13.4,27.6,-27.2,43.5,55.8,90.6,5.0,26.37,12.84155,77.6525,,936.2956543,,110.0,,0 / 0,3382,2017-10-05 18:59:08:436
-12.9,-7.599,2.647,-4.412,-8.692,1.077,-9.211,1.339,-0.53,86.0,-22.5,-68.6,0.0,-14.0,26.9,-28.3,54.0,60.7,81.4,5.0,26.37,12.84155,77.6525,,936.2956543,,110.0,,0 / 0,3391,2017-10-05 18:59:08:445
-13.845,-7.473,0.556,-4.412,-8.692,1.077,-9.211,1.339,-0.53,57.4,-88.6,-33.7,0.0,-14.0,26.9,-28.3,54.0,60.7,81.4,5.0,26.37,12.84155,77.6525,,936.2956543,,110.0,,0 / 0,3401,2017-10-05 18:59:08:455
-13.156,-7.766,-0.275,-4.228,-8.73,1.441,-8.717,1.089,-1.712,57.4,-88.6,-33.7,0.0,-14.8,25.4,-29.5,54.0,60.7,81.4,5.0,26.37,12.84155,77.6525,,936.2956543,,110.0,,0 / 0,3411,2017-10-05 18:59:08:465
-13.156,-7.766,-0.275,-4.228,-8.73,1.441,-8.717,1.089,-1.712,27.7,-157.8,-5.7,0.0,-14.8,25.4,-29.5,54.0,60.7,81.4,5.0,23.86,12.84155,77.6525,,936.2956543,,110.0,,0 / 0,3421,2017-10-05 18:59:08:475
-12.676,-8.67,-0.159,-4.033,-8.771,1.725,-8.44,0.24,-1.882,27.7,-157.8,-5.7,0.0,-15.7,24.2,-30.4,64.8,62.9,71.2,0.0,23.86,12.84155,77.6525,,936.2956543,,110.0,,0 / 0,3431,2017-10-05 18:59:08:485
-12.676,-8.67,-0.159,-4.033,-8.771,1.725,-8.44,0.24,-1.882,16.7,-216.1,18.7,0.0,-15.7,24.2,-30.4,64.8,62.9,71.2,0.0,23.86,12.84155,77.6525,,936.2956543,,110.0,,0 / 0,3441,2017-10-05 18:59:08:495
-10.392,-9.985,-0.859,-3.91,-8.78,1.947,-6.315,-1.045,-2.792,25.3,-222.7,25.9,0.0,-16.5,23.0,-31.1,64.8,62.9,71.2,0.0,23.86,12.84155,77.6525,,936.2956543,,110.0,,0 / 0,3451,2017-10-05 18:59:08:505
-5.717,-10.912,-1.991,-3.91,-8.78,1.947,-1.745,-1.966,-4.003,25.3,-222.7,25.9,0.0,-16.5,23.0,-31.1,64.8,62.9,71.2,0.0,23.86,12.84155,77.6525,,936.2956543,,110.0,,0 / 0,3461,2017-10-05 18:59:08:515
-5.717,-10.912,-1.991,-3.859,-8.764,2.115,-1.745,-1.966,-4.003,37.1,-159.3,16.5,0.0,-16.5,23.0,-31.1,64.8,62.9,71.2,0.0,23.86,12.84155,77.6525,,936.2956543,,110.0,,0 / 0,3471,2017-10-05 18:59:08:525
-3.368,-11.687,-2.36,-3.859,-8.764,2.115,0.502,-2.733,-4.502,37.1,-159.3,0.9,0.0,-17.3,21.8,-31.7,75.4,63.3,61.3,0.0,23.86,12.84155,77.6525,,936.2956543,,110.0,,0 / 0,3481,2017-10-05 18:59:08:535
-2.263,-12.733,2.565,-3.801,-8.763,2.223,1.575,-3.766,0.301,66.1,-67.9,0.9,0.0,-18.7,20.6,-31.9,75.4,63.3,61.3,0.0,23.86,12.84155,77.6525,,936.2956543,,110.0,,0 / 0,3491,2017-10-05 18:59:08:545
-2.263,-12.733,2.565,-3.801,-8.763,2.223,1.575,-3.766,0.301,66.1,-67.9,0.9,0.0,-18.7,20.6,-31.9,75.4,63.3,61.3,0.0,23.86,12.84155,77.6525,,936.2956543,,110.0,,0 / 0,3501,2017-10-05 18:59:08:555
-1.61,-14.378,4.761,-3.731,-8.764,2.332,2.147,-5.383,2.353,108.4,-14.6,-26.8,0.0,-20.0,19.6,-32.0,75.4,63.3,61.3,0.0,23.86,12.84155,77.6525,,936.2956543,,110.0,,0 / 0,3511,2017-10-05 18:59:08:565
-1.61,-14.378,4.761,-3.731,-8.764,2.332,2.147,-5.383,2.353,138.5,28.1,-71.7,0.0,-20.0,19.6,-32.0,75.4,63.3,61.3,0.0,23.86,12.84155,77.6525,,936.2956543,,110.0,,0 / 0,3521,2017-10-05 18:59:08:575
2.075,-14.015,6.564,-3.533,-8.807,2.473,5.575,-4.982,3.985,138.5,28.1,-71.7,0.0,-21.2,18.9,-32.0,79.2,63.9,55.0,0.0,23.86,12.84155,77.6525,,936.2956543,,110.0,,0 / 0,3531,2017-10-05 18:59:08:585
2.075,-14.015,6.564,-3.533,-8.807,2.473,5.575,-4.982,3.985,138.5,28.1,-71.7,0.0,-21.2,18.9,-32.0,79.2,63.9,55.0,0.0,23.86,12.84155,77.6525,,936.2956543,,110.0,,0 / 0,3541,2017-10-05 18:59:08:595
-6.966,-8.932,6.975,-3.287,-8.789,2.85,-3.567,0.0,4.013,165.2,53.8,-119.1,0.0,-22.3,18.2,-31.8,79.2,63.9,55.0,0.0,23.86,12.84155,77.6525,,936.2956543,,110.0,,0 / 0,3551,2017-10-05 18:59:08:605
-6.966,-8.932,6.975,-3.287,-8.789,2.85,-3.567,0.0,4.013,131.5,-15.6,-88.3,0.0,-22.3,18.2,-31.8,79.2,63.9,55.0,0.0,23.86,12.84155,77.6525,,936.2956543,,110.0,,0 / 0,3561,2017-10-05 18:59:08:615
-13.477,-3.41,5.106,-3.103,-8.713,3.259,-10.157,5.358,1.765,97.2,-64.2,-23.8,0.0,-23.1,17.2,-31.6,83.7,63.7,49.1,0.0,23.86,12.84155,77.6525,,936.2956543,,110.0,,0 / 0,3571,2017-10-05 18:59:08:625
-13.477,-3.41,5.106,-3.103,-8.713,3.259,-10.157,5.358,1.765,97.2,-64.2,-23.8,0.0,-23.1,17.2,-31.6,83.7,63.7,49.1,0.0,23.86,12.84155,77.6525,,936.2956543,,110.0,,0 / 0,3581,2017-10-05 18:59:08:635
-12.365,-6.12,4.65,-3.029,-8.567,3.687,-9.138,2.546,0.888,90.2,-71.8,52.4,0.0,-24.0,16.3,-31.4,83.7,63.7,49.1,0.0,23.86,12.84155,77.6525,,936.2956543,,110.0,,0 / 0,3591,2017-10-05 18:59:08:645
-12.365,-6.12,4.65,-3.029,-8.567,3.687,-9.138,2.546,0.888,85.2,-54.3,93.0,0.0,-24.0,16.3,-31.4,83.7,63.7,49.1,0.0,23.86,12.84155,77.6525,,936.2956543,,110.0,,0 / 0,3601,2017-10-05 18:59:08:655
-6.647,-6.649,3.671,-3.04,-8.411,4.024,-3.501,1.869,-0.412,85.2,-54.3,93.0,0.0,-24.7,14.9,-31.4,89.7,60.9,39.4,0.0,23.86,12.84155,77.6525,,936.2956543,,110.0,,0 / 0,3611,2017-10-05 18:59:08:665
-6.647,-6.649,3.671,-3.04,-8.411,4.024,-3.501,1.869,-0.412,44.2,-61.4,96.4,0.0,-24.7,14.9,-31.4,89.7,60.9,39.4,0.0,23.86,12.84155,77.6525,,936.2956543,,110.0,,0 / 0,3621,2017-10-05 18:59:08:675
-4.368,-6.051,3.098,-3.228,-8.201,4.301,-1.07,2.247,-1.253,44.2,-61.4,96.4,0.0,-25.6,13.8,-31.6,89.7,60.9,39.4,0.0,23.86,12.84155,77.6525,,936.2956543,,110.0,,0 / 0,3631,2017-10-05 18:59:08:685
-4.368,-6.051,3.098,-3.228,-8.201,4.301,-1.07,2.247,-1.253,36.4,-28.3,98.4,0.0,-25.6,13.8,-31.6,89.7,60.9,39.4,0.0,23.86,12.84155,77.6525,,936.2956543,,110.0,,0 / 0,3641,2017-10-05 18:59:08:695
-4.948,-3.624,3.48,-3.539,-7.976,4.476,-1.329,4.41,-1.051,36.4,-28.3,98.4,0.0,-25.8,12.8,-31.9,91.8,56.7,36.9,0.0,23.86,12.84155,77.6525,,936.2956543,,110.0,,0 / 0,3651,2017-10-05 18:59:08:705
-4.948,-3.624,3.48,-3.539,-7.976,4.476,-1.329,4.41,-1.051,20.5,12.2,108.2,0.0,-25.8,12.8,-31.9,91.8,56.7,36.9,0.0,23.86,12.84155,77.6525,,936.2956543,,110.0,,0 / 0,3661,2017-10-05 18:59:08:715
-4.707,-1.405,-0.246,-3.927,-7.802,4.459,-0.705,6.419,-4.701,-9.8,63.8,138.0,0.0,-26.4,11.9,-32.1,91.8,56.7,36.9,0.0,23.86,12.84155,77.6525,,936.2956543,,110.0,,0 / 0,3671,2017-10-05 18:59:08:725
-4.707,-1.405,-0.246,-3.927,-7.802,4.459,-0.705,6.419,-4.701,-9.8,63.8,138.0,0.0,-26.4,11.9,-32.1,91.8,56.7,36.9,0.0,23.86,12.84155,77.6525,,936.2956543,,110.0,,0 / 0,3681,2017-10-05 18:59:08:735
-7.265,-2.698,3.061,-4.415,-7.573,4.396,-2.733,4.918,-1.384,-9.8,63.8,138.0,0.0,-26.6,10.9,-32.3,87.6,52.7,41.4,0.0,23.86,12.84155,77.6525,,936.2956543,,110.0,,0 / 0,3691,2017-10-05 18:59:08:745
-7.265,-2.698,3.061,-4.415,-7.573,4.396,-2.733,4.918,-1.384,-25.0,146.9,178.3,0.0,-26.6,10.9,-32.3,87.6,52.7,41.4,0.0,23.86,12.84155,77.6525,,936.2956543,,110.0,,0 / 0,3701,2017-10-05 18:59:08:755
-3.742,-5.642,6.534,-5.193,-7.268,4.047,1.511,1.717,2.382,-34.2,217.8,189.0,0.0,-26.9,10.2,-32.8,87.6,52.7,41.4,0.0,23.86,12.84155,77.6525,,936.2956543,,110.0,,0 / 0,3711,2017-10-05 18:59:08:765
-3.742,-5.642,6.534,-5.193,-7.268,4.047,1.511,1.717,2.382,-34.2,217.8,189.0,0.0,-26.9,10.2,-32.8,87.6,52.7,41.4,0.0,23.86,12.84155,77.6525,,936.2956543,,110.0,,0 / 0,3723,2017-10-05 18:59:08:777
-3.742,-5.642,6.534,-5.193,-7.268,4.047,1.511,1.717,2.382,-34.2,217.8,189.0,0.0,-26.9,10.2,-32.8,87.6,52.7,41.4,0.0,23.86,12.84155,77.6525,,936.2956543,,110.0,,0 / 0,3731,2017-10-05 18:59:08:785
-5.136,-4.802,6.201,-5.834,-7.0,3.624,0.78,2.275,2.477,-46.6,220.2,176.2,0.0,-26.8,10.6,-33.2,79.2,47.8,52.1,0.0,23.86,12.84155,77.6525,,936.2956543,,110.0,,0 / 0,3741,2017-10-05 18:59:08:795
-5.136,-4.802,6.201,-5.834,-7.0,3.624,0.78,2.275,2.477,-102.1,135.6,162.1,0.0,-26.8,10.6,-33.2,79.2,47.8,52.1,0.0,55.56,12.84155,77.6525,,936.2956543,,110.0,,0 / 0,3751,2017-10-05 18:59:08:805
-5.136,-4.802,6.201,-6.696,-6.526,2.957,-1.641,0.114,1.099,-133.9,78.2,164.2,0.0,-25.8,11.2,-33.5,79.2,47.8,52.1,0.0,55.56,12.84155,77.6525,,936.2956543,,110.0,,0 / 0,3761,2017-10-05 18:59:08:815
-8.472,-6.517,4.121,-6.696,-6.526,2.957,-1.641,0.114,1.099,-133.9,88.6,171.7,0.0,-25.8,11.2,-33.5,79.2,47.8,52.1,0.0,55.56,12.84155,77.6525,,936.2956543,,110.0,,0 / 0,3771,2017-10-05 18:59:08:825
-15.949,-6.216,-5.557,-7.177,-6.221,2.444,-8.516,0.105,-7.911,-156.7,88.6,171.7,0.0,-24.5,12.2,-34.0,70.5,41.7,66.2,0.0,55.56,12.84155,77.6525,,936.2956543,,110.0,,0 / 0,3781,2017-10-05 18:59:08:835
-15.949,-6.216,-5.557,-7.177,-6.221,2.444,-8.516,0.105,-7.911,-210.4,139.8,235.2,0.0,-24.5,12.2,-34.0,70.5,41.7,66.2,0.0,55.56,12.84155,77.6525,,936.2956543,,110.0,,0 / 0,3791,2017-10-05 18:59:08:845
-15.949,-6.216,-5.557,-7.177,-6.221,2.444,-8.516,0.105,-7.911,-210.4,139.8,235.2,0.0,-24.5,12.2,-34.0,70.5,41.7,66.2,0.0,55.56,12.84155,77.6525,,936.2956543,,110.0,,0 / 0,3801,2017-10-05 18:59:08:855
-18.129,-2.539,-3.614,-7.787,-5.752,1.565,-10.051,3.253,-5.122,-233.7,157.3,297.4,0.0,-22.7,13.6,-34.3,70.5,41.7,66.2,0.0,55.56,12.84155,77.6525,,936.2956543,,110.0,,0 / 0,3811,2017-10-05 18:59:08:865
-23.461,-8.073,-0.234,-8.33,-5.097,0.9,-14.754,-2.847,-1.131,-233.7,157.3,297.4,0.0,-21.1,15.1,-34.7,59.6,31.3,83.8,0.0,55.56,12.84155,77.6525,,936.2956543,,110.0,,0 / 0,3821,2017-10-05 18:59:08:875
-23.461,-8.073,-0.234,-8.33,-5.097,0.9,-14.754,-2.847,-1.131,-233.9,94.5,287.8,0.0,-21.1,15.1,-34.7,59.6,31.3,83.8,0.0,55.56,12.84155,77.6525,,936.2956543,,110.0,,0 / 0,3831,2017-10-05 18:59:08:885
-7.745,-13.783,5.448,-8.586,-4.702,0.591,0.965,-8.859,4.769,-233.9,94.5,287.8,0.0,-18.5,17.0,-35.1,59.6,31.3,83.8,0.0,55.56,12.84155,77.6525,,936.2956543,,110.0,,0 / 0,3841,2017-10-05 18:59:08:895
-4.887,-6.013,3.332,-8.869,-4.185,0.03,4.06,-1.732,3.248,-205.7,-40.3,169.0,0.0,-15.5,19.0,-34.9,59.6,31.3,83.8,0.0,55.56,12.84155,77.6525,,936.2956543,,110.0,,0 / 0,3851,2017-10-05 18:59:08:905
-6.387,-5.412,1.496,-8.992,-3.912,-0.139,2.708,-1.413,1.611,-205.7,-40.3,169.0,0.0,-15.5,19.0,-34.9,55.3,23.5,90.9,0.0,55.56,12.84155,77.6525,,936.2956543,,110.0,,0 / 0,3862,2017-10-05 18:59:08:916
-6.387,-5.412,1.496,-8.992,-3.912,-0.139,2.708,-1.413,1.611,-189.4,3.9,149.6,0.0,-15.5,19.0,-34.9,55.3,23.5,90.9,0.0,55.56,12.84155,77.6525,,936.2956543,,110.0,,0 / 0,3871,2017-10-05 18:59:08:925
-4.333,-5.669,-3.423,-9.265,-3.193,-0.357,5.002,-2.385,-3.011,-189.4,3.9,149.6,0.0,-12.5,21.3,-34.0,55.3,23.5,90.9,0.0,55.56,12.84155,77.6525,,936.2956543,,110.0,,0 / 0,3881,2017-10-05 18:59:08:935
-7.153,-6.59,-5.015,-9.33,-2.984,-0.476,2.291,-3.5,-4.459,-199.9,59.3,128.6,0.0,-9.8,23.1,-32.9,55.3,23.5,90.9,0.0,55.56,12.84155,77.6525,,936.2956543,,110.0,,0 / 0,3892,2017-10-05 18:59:08:946
-7.153,-6.59,-5.015,-9.33,-2.984,-0.476,2.291,-3.5,-4.459,-199.9,59.3,128.6,0.0,-9.8,23.1,-32.9,55.3,23.5,90.9,0.0,55.56,12.84155,77.6525,,936.2956543,,110.0,,0 / 0,3902,2017-10-05 18:59:08:956
-7.153,-6.59,-5.015,-9.33,-2.984,-0.476,2.291,-3.5,-4.459,-199.9,59.3,128.6,0.0,-9.8,23.1,-32.9,55.3,23.5,90.9,0.0,55.56,12.84155,77.6525,,936.2956543,,110.0,,0 / 0,3911,2017-10-05 18:59:08:965
-5.957,-7.599,-4.003,-9.449,-2.526,-0.706,3.588,-4.951,-3.232,-222.0,92.9,94.2,0.0,-7.4,25.0,-31.4,48.9,14.9,94.3,0.0,55.56,12.84155,77.6525,,936.2956543,,110.0,,0 / 0,3921,2017-10-05 18:59:08:975
-5.957,-7.599,-4.003,-9.449,-2.526,-0.706,3.588,-4.951,-3.232,-222.0,112.3,36.6,0.0,-7.4,25.0,-31.4,48.9,14.9,94.3,0.0,55.56,12.84155,77.6525,,936.2956543,,110.0,,0 / 0,3931,2017-10-05 18:59:08:985
-2.209,-10.725,-0.649,-9.479,-2.181,-1.253,7.305,-8.372,0.614,-162.5,87.1,-24.1,9.595,-5.0,27.3,-29.6,48.9,14.9,94.3,0.0,55.56,12.84155,77.6525,,936.2956543,,110.0,,0 / 0,3942,2017-10-05 18:59:08:996
-2.935,-6.171,3.94,-9.378,-2.14,-1.908,6.49,-3.932,5.784,-162.5,87.1,-24.1,9.595,-2.8,28.9,-27.2,41.6,12.8,97.5,0.0,55.56,12.84155,77.6525,,936.2956543,,110.0,,0 / 0,3952,2017-10-05 18:59:09:006
-2.935,-6.171,3.94,-9.378,-2.14,-1.908,6.49,-3.932,5.784,-69.0,47.9,-82.9,9.595,-2.8,28.9,-27.2,41.6,12.8,97.5,0.0,55.56,12.84155,77.6525,,936.2956543,,110.0,,0 / 0,3962,2017-10-05 18:59:09:016
-2.756,-4.631,2.781,-9.283,-2.151,-2.316,6.572,-2.406,5.052,-69.0,47.9,-82.9,9.595,-0.7,30.4,-24.6,41.6,12.8,97.5,0.0,55.56,12.84155,77.6525,,936.2956543,,110.0,,0 / 0,3971,2017-10-05 18:59:09:025
-2.299,-3.21,-0.579,-9.187,-2.404,-2.446,6.926,-0.755,1.876,-11.1,21.1,-159.6,9.595,-0.7,30.4,-24.6,41.6,12.8,97.5,0.0,55.56,12.84155,77.6525,,936.2956543,,110.0,,0 / 0,3983,2017-10-05 18:59:09:037
-2.299,-3.21,-0.579,-9.187,-2.404,-2.446,6.926,-0.755,1.876,-11.1,21.1,-159.6,9.595,-0.7,30.4,-24.6,41.6,12.8,97.5,0.0,55.56,12.84155,77.6525,,936.2956543,,110.0,,0 / 0,3992,2017-10-05 18:59:09:046
-0.889,-4.478,-3.189,-9.06,-2.984,-2.276,8.186,-1.422,-0.861,17.1,-29.3,-258.2,9.595,0.7,31.9,-22.0,33.8,14.2,104.9,0.0,55.56,12.84155,77.6525,,936.2956543,,110.0,,0 / 0,4001,2017-10-05 18:59:09:055
-0.889,-4.478,-3.189,-9.06,-2.984,-2.276,8.186,-1.422,-0.861,17.1,-29.3,-258.2,9.595,0.7,31.9,-22.0,33.8,14.2,104.9,0.0,55.56,12.84155,77.6525,,936.2956543,,110.0,,0 / 0,4011,2017-10-05 18:59:09:065
-8.075,-7.597,-1.247,-8.806,-3.763,-2.111,0.861,-3.712,0.883,31.6,-51.1,-323.1,9.595,1.3,33.1,-19.7,33.8,14.2,104.9,0.0,55.56,12.84155,77.6525,,936.2956543,,110.0,,0 / 0,4021,2017-10-05 18:59:09:075
-13.578,-9.273,0.581,-8.59,-4.297,-1.978,-4.77,-4.827,2.55,58.8,-63.5,-333.3,9.595,1.3,34.0,-17.8,33.8,14.2,104.9,0.0,55.56,12.84155,77.6525,,936.2956543,,110.0,,0 / 0,4031,2017-10-05 18:59:09:085
-13.578,-9.273,0.581,-8.59,-4.297,-1.978,-4.77,-4.827,2.55,58.8,-63.5,-333.3,9.595,1.3,34.0,-17.8,33.8,14.2,104.9,0.0,55.56,12.84155,77.6525,,936.2956543,,110.0,,0 / 0,4041,2017-10-05 18:59:09:095
-14.722,-10.618,6.919,-8.097,-5.26,-1.716,-6.388,-5.188,8.524,137.8,-18.5,-290.6,9.595,0.5,35.0,-16.0,25.9,26.0,103.0,0.0,55.56,12.84155,77.6525,,936.2956543,,110.0,,0 / 0,4051,2017-10-05 18:59:09:105
-14.722,-10.618,6.919,-8.097,-5.26,-1.716,-6.388,-5.188,8.524,137.8,-18.5,-290.6,9.595,0.5,35.0,-16.0,25.9,26.0,103.0,0.0,48.38,12.84155,77.6525,,936.2956543,,110.0,,0 / 0,4061,2017-10-05 18:59:09:115
-12.719,-8.261,0.573,-7.871,-5.631,-1.582,-4.644,-2.497,2.146,214.8,62.4,-216.5,9.595,0.5,35.0,-16.0,25.9,26.0,103.0,0.0,48.38,12.84155,77.6525,,936.2956543,,110.0,,0 / 0,4072,2017-10-05 18:59:09:126
-8.242,-7.17,-4.753,-7.381,-6.355,-1.14,-0.728,-0.7,-3.537,242.1,145.7,-181.8,9.595,-1.0,35.6,-14.9,25.9,26.0,103.0,0.0,48.38,12.84155,77.6525,,936.2956543,,110.0,,0 / 0,4082,2017-10-05 18:59:09:136
-8.242,-7.17,-4.753,-7.381,-6.355,-1.14,-0.728,-0.7,-3.537,242.1,145.7,-181.8,9.595,-1.0,35.6,-14.9,25.9,26.0,103.0,0.0,48.38,12.84155,77.6525,,936.2956543,,110.0,,0 / 0,4091,2017-10-05 18:59:09:145
-8.661,-7.532,-9.346,-7.027,-6.798,-0.759,-1.496,-0.613,-8.436,183.4,155.5,-160.2,9.595,-3.3,35.8,-14.3,23.5,40.4,98.8,0.0,48.38,12.84155,77.6525,,936.2956543,,110.0,,0 / 0,4102,2017-10-05 18:59:09:156
-8.661,-7.532,-9.346,-7.027,-6.798,-0.759,-1.496,-0.613,-8.436,183.4,155.5,-160.2,9.595,-3.3,35.8,-14.3,23.5,40.4,98.8,0.0,48.38,12.84155,77.6525,,936.2956543,,110.0,,0 / 0,4112,2017-10-05 18:59:09:166
-12.468,-7.171,-9.073,-6.849,-6.992,-0.606,-5.419,-0.064,-8.322,65.8,101.5,-104.4,8.529,-5.7,35.9,-14.8,23.5,40.4,98.8,0.0,48.38,12.84155,77.6525,,936.2956543,,110.0,,0 / 0,4122,2017-10-05 18:59:09:176
-12.468,-7.171,-9.073,-6.849,-6.992,-0.606,-5.419,-0.064,-8.322,19.1,-47.5,-27.6,8.529,-5.7,35.9,-14.8,23.5,40.4,98.8,0.0,48.38,12.84155,77.6525,,936.2956543,,110.0,,0 / 0,4131,2017-10-05 18:59:09:185
-14.817,-11.723,4.474,-6.689,-7.153,-0.506,-7.89,-4.382,4.908,19.1,-47.5,-27.6,8.529,-8.1,35.5,-16.1,23.5,40.4,98.8,0.0,48.38,12.84155,77.6525,,936.2956543,,110.0,,0 / 0,4141,2017-10-05 18:59:09:195
-14.817,-11.723,4.474,-6.689,-7.153,-0.506,-7.89,-4.382,4.908,-14.3,7.0,-69.7,8.529,-8.1,35.5,-16.1,23.5,40.4,98.8,0.0,48.38,12.84155,77.6525,,936.2956543,,110.0,,0 / 0,4151,2017-10-05 18:59:09:205
-10.763,-12.029,-3.34,-6.364,-7.417,-0.81,-4.226,-4.419,-2.476,-14.3,7.0,-69.7,8.529,-10.4,34.7,-17.6,28.1,46.8,94.3,0.0,48.38,12.84155,77.6525,,936.2956543,,110.0,,0 / 0,4162,2017-10-05 18:59:09:216
-8.987,-5.787,-4.508,-6.148,-7.579,-0.962,-2.694,1.885,-3.473,-53.2,82.4,-127.5,8.529,-12.5,33.7,-19.1,28.1,46.8,94.3,0.0,48.38,12.84155,77.6525,,936.2956543,,110.0,,0 / 1,4172,2017-10-05 18:59:09:226
-8.987,-5.787,-4.508,-6.148,-7.579,-0.962,-2.694,1.885,-3.473,-22.6,96.5,-145.8,8.529,-12.5,33.7,-19.1,28.1,46.8,94.3,0.0,48.38,12.84155,77.6525,,936.2956543,,110.0,,0 / 1,4182,2017-10-05 18:59:09:236
-8.987,-5.787,-4.508,-6.148,-7.579,-0.962,-2.694,1.885,-3.473,-22.6,96.5,-145.8,8.529,-12.5,33.7,-19.1,28.1,46.8,94.3,0.0,48.38,12.84155,77.6525,,936.2956543,,110.0,,0 / 1,4191,2017-10-05 18:59:09:245
-8.341,-6.021,-1.243,-5.733,-7.888,-1.039,-2.474,1.964,-0.184,53.0,44.6,-166.6,8.529,-14.2,32.9,-20.8,28.6,50.6,98.9,0.0,48.38,12.84155,77.6525,,936.2956543,,110.0,,0 / 1,4202,2017-10-05 18:59:09:256
-8.341,-6.021,-1.243,-5.733,-7.888,-1.039,-2.474,1.964,-0.184,53.0,44.6,-166.6,8.529,-14.2,32.9,-20.8,28.6,50.6,98.9,0.0,48.38,12.84155,77.6525,,936.2956543,,110.0,,0 / 1,4212,2017-10-05 18:59:09:266
-6.179,-3.314,-1.324,-5.28,-8.203,-1.006,-0.8,4.942,-0.297,108.4,-16.0,-167.4,8.529,-15.7,31.9,-22.3,28.6,50.6,98.9,0.0,48.38,12.84155,77.6525,,936.2956543,,110.0,,0 / 1,4221,2017-10-05 18:59:09:275
-7.298,-3.245,-0.147,-4.867,-8.458,-0.966,-2.314,5.266,0.822,108.4,-16.0,-167.4,8.529,-16.6,31.0,-23.7,30.4,56.8,100.8,0.0,48.38,12.84155,77.6525,,936.2956543,,110.0,,0 / 1,4232,2017-10-05 18:59:09:286
-7.298,-3.245,-0.147,-4.867,-8.458,-0.966,-2.314,5.266,0.822,135.4,-38.4,-127.8,8.529,-16.6,31.0,-23.7,30.4,56.8,100.8,0.0,48.38,12.84155,77.6525,,936.2956543,,110.0,,0 / 1,4242,2017-10-05 18:59:09:296
-9.72,-8.035,-0.116,-4.636,-8.626,-0.526,-4.928,0.72,0.412,151.6,22.1,-33.4,8.529,-17.4,30.2,-24.8,30.4,56.8,100.8,0.0,48.38,12.84155,77.6525,,936.2956543,,110.0,,0 / 1,4252,2017-10-05 18:59:09:306
-9.72,-8.035,-0.116,-4.636,-8.626,-0.526,-4.928,0.72,0.412,120.8,70.9,54.4,8.529,-17.4,30.2,-24.8,30.4,56.8,100.8,0.0,48.38,12.84155,77.6525,,936.2956543,,110.0,,0 / 1,4262,2017-10-05 18:59:09:316
-5.271,-12.429,-0.867,-4.594,-8.657,-0.347,-0.592,-3.572,-0.506,120.8,70.9,54.4,8.529,-17.4,30.2,-24.8,30.4,56.8,100.8,0.0,48.38,12.84155,77.6525,,936.2956543,,110.0,,0 / 1,4272,2017-10-05 18:59:09:326
-5.271,-12.429,-0.867,-4.594,-8.657,-0.347,-0.592,-3.572,-0.506,120.8,70.9,54.4,8.529,-18.2,29.1,-25.6,38.2,62.0,94.3,0.0,48.38,12.84155,77.6525,,936.2956543,,110.0,,0 / 1,4282,2017-10-05 18:59:09:336
-5.271,-12.429,-0.867,-4.594,-8.657,-0.347,-0.592,-3.572,-0.506,22.2,77.0,70.2,8.529,-18.2,29.1,-25.6,38.2,62.0,94.3,0.0,48.38,12.84155,77.6525,,936.2956543,,110.0,,0 / 1,4291,2017-10-05 18:59:09:345
-3.941,-13.132,-0.434,-4.653,-8.631,-0.174,0.776,-4.291,-0.253,-24.8,2.1,59.5,8.529,-18.8,28.0,-25.8,38.2,62.0,94.3,0.0,48.38,12.84155,77.6525,,936.2956543,,110.0,,0 / 1,4301,2017-10-05 18:59:09:355
-7.035,-7.141,4.959,-4.653,-8.631,-0.174,-2.088,1.504,5.064,-24.8,2.1,59.5,8.529,-19.6,26.9,-26.5,38.9,61.7,92.1,0.0,48.38,12.84155,77.6525,,936.2956543,,110.0,,0 / 1,4312,2017-10-05 18:59:09:366
-7.035,-7.141,4.959,-4.834,-8.53,-0.185,-2.088,1.504,5.064,-24.8,2.1,59.5,8.529,-19.6,26.9,-26.5,38.9,61.7,92.1,0.0,48.38,12.84155,77.6525,,936.2956543,,110.0,,0 / 1,4321,2017-10-05 18:59:09:375
-5.555,-7.001,1.298,-5.036,-8.412,-0.197,-0.43,1.523,1.474,-13.2,-49.0,66.6,8.529,-20.2,26.5,-27.4,38.9,61.7,92.1,0.0,48.38,12.84155,77.6525,,936.2956543,,110.0,,0 / 1,4331,2017-10-05 18:59:09:385
-5.555,-7.001,1.298,-5.036,-8.412,-0.197,-0.43,1.523,1.474,-13.2,-49.0,66.6,8.529,-20.2,26.5,-27.4,38.9,61.7,92.1,0.0,48.38,12.84155,77.6525,,936.2956543,,110.0,,0 / 1,4341,2017-10-05 18:59:09:395
-5.555,-7.001,1.298,-5.036,-8.412,-0.197,-0.43,1.523,1.474,-13.2,-49.0,66.6,8.529,-20.2,26.5,-27.4,38.9,61.7,92.1,0.0,48.38,12.84155,77.6525,,936.2956543,,110.0,,0 / 1,4351,2017-10-05 18:59:09:405
-2.713,-6.509,0.342,-5.213,-8.306,-0.062,2.544,1.902,0.399,-15.5,-32.5,61.0,8.529,-20.5,25.7,-27.8,40.9,59.1,92.2,0.0,57.63,12.84155,77.6525,,936.2956543,,110.0,,0 / 1,4361,2017-10-05 18:59:09:415
-2.713,-6.509,0.342,-5.213,-8.306,-0.062,2.544,1.902,0.399,-31.8,-21.6,36.8,8.529,-20.5,25.7,-27.8,40.9,59.1,92.2,0.0,57.63,12.84155,77.6525,,936.2956543,,110.0,,0 / 1,4371,2017-10-05 18:59:09:425
-2.94,-4.858,-2.126,-5.313,-8.242,0.113,2.42,3.462,-2.205,-31.8,-21.6,36.8,8.529,-20.6,25.0,-28.4,40.9,59.1,92.2,0.0,57.63,12.84155,77.6525,,936.2956543,,110.0,,0 / 1,4381,2017-10-05 18:59:09:435
-2.94,-4.858,-2.126,-5.313,-8.242,0.113,2.42,3.462,-2.205,-42.5,-9.7,26.1,8.529,-20.6,25.0,-28.4,40.9,59.1,92.2,0.0,57.63,12.84155,77.6525,,936.2956543,,110.0,,0 / 1,4391,2017-10-05 18:59:09:445
-6.663,-5.173,-0.854,-5.428,-8.167,0.113,-1.128,3.077,-0.953,-43.2,5.9,29.7,8.529,-20.6,24.5,-28.8,44.3,57.2,88.8,0.0,57.63,12.84155,77.6525,,936.2956543,,110.0,,0 / 1,4401,2017-10-05 18:59:09:455
-6.663,-5.173,-0.854,-5.428,-8.167,0.113,-1.128,3.077,-0.953,-43.2,5.9,29.7,8.529,-20.6,24.5,-28.8,44.3,57.2,88.8,0.0,57.63,12.84155,77.6525,,936.2956543,,110.0,,0 / 1,4411,2017-10-05 18:59:09:465
-9.377,-5.625,0.337,-5.535,-8.095,-0.005,-3.691,2.561,0.337,-38.1,11.7,39.3,8.529,-20.3,24.1,-29.1,44.3,57.2,88.8,0.0,57.63,12.84155,77.6525,,936.2956543,,110.0,,0 / 1,4421,2017-10-05 18:59:09:475
-9.377,-7.168,-0.016,-5.666,-8.0,-0.252,-2.035,0.947,0.236,-33.6,28.3,54.6,8.529,-19.8,24.2,-28.9,42.0,54.7,92.5,0.0,57.63,12.84155,77.6525,,936.2956543,,110.0,,0 / 1,4431,2017-10-05 18:59:09:485
-7.827,-7.168,-0.016,-5.666,-8.0,-0.252,-2.035,0.947,0.236,-33.6,28.3,54.6,8.529,-19.8,24.2,-28.9,42.0,54.7,92.5,0.0,57.63,12.84155,77.6525,,936.2956543,,110.0,,0 / 1,4441,2017-10-05 18:59:09:495
-5.829,-6.662,0.118,-5.782,-7.911,-0.399,0.046,1.356,0.515,-42.5,25.5,54.7,8.529,-19.7,24.8,-29.0,42.0,54.7,92.5,0.0,57.63,12.84155,77.6525,,936.2956543,,110.0,,0 / 1,4451,2017-10-05 18:59:09:505
-5.829,-6.662,0.118,-5.782,-7.911,-0.399,0.046,1.356,0.515,-42.5,25.5,54.7,8.529,-19.7,24.8,-29.0,42.0,54.7,92.5,0.0,57.63,12.84155,77.6525,,936.2956543,,110.0,,0 / 1,4461,2017-10-05 18:59:09:515
-3.437,-5.707,0.172,-5.9,-7.812,-0.572,2.518,2.196,0.741,-53.4,33.2,35.3,8.529,-19.2,25.5,-28.3,39.6,53.8,93.9,0.0,57.63,12.84155,77.6525,,936.2956543,,110.0,,0 / 1,4471,2017-10-05 18:59:09:525
-3.437,-5.707,0.172,-5.9,-7.812,-0.572,2.518,2.196,0.741,-53.4,33.2,35.3,8.529,-19.2,25.5,-28.3,39.6,53.8,93.9,0.0,57.63,12.84155,77.6525,,936.2956543,,110.0,,0 / 1,4481,2017-10-05 18:59:09:535
-3.437,-5.707,0.172,-5.9,-7.812,-0.572,2.518,2.196,0.741,-56.6,71.8,12.0,8.529,-19.2,25.5,-28.3,39.6,53.8,93.9,0.0,57.63,12.84155,77.6525,,936.2956543,,110.0,,0 / 1,4491,2017-10-05 18:59:09:545
-1.378,-4.968,-0.136,-5.916,-7.774,-0.861,4.56,2.885,0.727,-56.6,71.8,12.0,8.529,-18.6,26.0,-27.7,39.6,53.8,93.9,0.0,57.63,12.84155,77.6525,,936.2956543,,110.0,,0 / 1,4501,2017-10-05 18:59:09:555
-1.378,-4.968,-0.136,-5.916,-7.774,-0.861,4.56,2.885,0.727,-54.6,138.2,-17.2,8.529,-18.6,26.0,-27.7,39.6,53.8,93.9,0.0,57.63,12.84155,77.6525,,936.2956543,,110.0,,0 / 1,4511,2017-10-05 18:59:09:565
-0.969,-6.829,1.384,-5.808,-7.798,-1.275,4.855,1.079,2.636,-41.7,206.6,-43.7,8.529,-18.2,26.5,-27.2,36.1,52.4,98.3,0.0,57.63,12.84155,77.6525,,936.2956543,,110.0,,0 / 1,4521,2017-10-05 18:59:09:575
-0.969,-6.829,1.384,-5.808,-7.798,-1.275,4.855,1.079,2.636,-41.7,206.6,-43.7,8.529,-18.2,26.5,-27.2,36.1,52.4,98.3,0.0,57.63,12.84155,77.6525,,936.2956543,,110.0,,0 / 1,4531,2017-10-05 18:59:09:585
-6.24,-14.424,0.09,-5.675,-7.833,-1.615,-0.464,-6.359,1.703,-9.0,199.0,-57.4,8.529,-17.5,27.1,-26.9,36.1,52.4,98.3,0.0,57.63,12.84155,77.6525,,936.2956543,,110.0,,0 / 1,4541,2017-10-05 18:59:09:595
-6.24,-14.424,0.09,-5.675,-7.833,-1.615,-0.464,-6.359,1.703,-9.0,199.0,-57.4,8.529,-17.5,27.1,-26.9,36.1,52.4,98.3,0.0,57.63,12.84155,77.6525,,936.2956543,,110.0,,0 / 1,4551,2017-10-05 18:59:09:605
-9.951,-13.353,-4.875,-5.446,-7.933,-1.894,-4.345,-5.206,-2.903,8.1,105.4,-42.5,8.529,-16.8,27.4,-26.6,31.2,53.0,105.9,0.0,57.63,12.84155,77.6525,,936.2956543,,110.0,,0 / 1,4561,2017-10-05 18:59:09:615
-9.951,-13.353,-4.875,-5.446,-7.933,-1.894,-4.345,-5.206,-2.903,8.1,105.4,-42.5,8.529,-16.8,27.4,-26.6,31.2,53.0,105.9,0.0,57.63,12.84155,77.6525,,936.2956543,,110.0,,0 / 1,4572,2017-10-05 18:59:09:626
-8.469,-9.874,-3.0,-5.276,-8.013,-2.03,-3.057,-1.702,-0.921,0.4,39.2,-22.0,8.529,-16.1,27.8,-26.3,31.2,53.0,105.9,0.0,57.63,12.84155,77.6525,,936.2956543,,110.0,,0 / 1,4581,2017-10-05 18:59:09:635
-8.469,-9.874,-3.0,-5.276,-8.013,-2.03,-3.057,-1.702,-0.921,-3.1,14.3,-28.7,8.529,-16.1,27.8,-26.3,31.2,53.0,105.9,0.0,57.63,12.84155,77.6525,,936.2956543,,110.0,,0 / 1,4591,2017-10-05 18:59:09:645
-5.592,-8.989,-1.11,-5.139,-8.09,-2.077,-0.364,-0.755,0.985,-3.1,14.3,-28.7,8.529,-15.5,28.4,-26.6,28.2,54.8,111.0,0.0,57.63,12.84155,77.6525,,936.2956543,,110.0,,0 / 1,4601,2017-10-05 18:59:09:655
-5.592,-8.989,-1.11,-5.139,-8.09,-2.077,-0.364,-0.755,0.985,9.6,22.0,-46.5,8.529,-15.5,28.4,-26.6,28.2,54.8,111.0,0.0,57.63,12.84155,77.6525,,936.2956543,,110.0,,0 / 1,4611,2017-10-05 18:59:09:665
-4.867,-9.866,-1.713,-4.985,-8.172,-2.13,0.197,-1.535,0.445,9.6,22.0,-46.5,7.463,-14.6,28.7,-26.6,28.2,54.8,111.0,0.0,57.63,12.84155,77.6525,,936.2956543,,110.0,,0 / 1,4621,2017-10-05 18:59:09:675
-4.867,-9.866,-1.713,-4.985,-8.172,-2.13,0.197,-1.535,0.445,30.1,33.4,-60.2,7.463,-14.6,28.7,-26.6,28.2,54.8,111.0,0.0,57.63,12.84155,77.6525,,936.2956543,,110.0,,0 / 1,4631,2017-10-05 18:59:09:685
-4.795,-9.078,-1.335,-4.8,-8.309,-2.022,0.083,-0.623,0.709,60.7,42.5,-72.0,7.463,-14.1,28.7,-26.9,28.5,56.4,113.1,0.0,57.63,12.84155,77.6525,,936.2956543,,110.0,,0 / 1,4641,2017-10-05 18:59:09:695
-4.795,-9.078,-1.335,-4.8,-8.309,-2.022,0.083,-0.623,0.709,60.7,42.5,-72.0,7.463,-14.1,28.7,-26.9,28.5,56.4,113.1,0.0,57.63,12.84155,77.6525,,936.2956543,,110.0,,0 / 1,4651,2017-10-05 18:59:09:705
-6.139,-7.117,-2.696,-4.615,-8.442,-1.897,-1.425,1.439,-0.756,91.3,56.6,-63.0,7.463,-13.9,28.9,-27.0,28.5,56.4,113.1,0.0,57.63,12.84155,77.6525,,936.2956543,,110.0,,0 / 1,4661,2017-10-05 18:59:09:715
-6.139,-7.117,-2.696,-4.615,-8.442,-1.897,-1.425,1.439,-0.756,91.3,56.6,-63.0,7.463,-13.9,28.9,-27.0,28.5,56.4,113.1,0.0,57.63,12.84155,77.6525,,936.2956543,,110.0,,0 / 1,4671,2017-10-05 18:59:09:725
-6.139,-7.117,-2.696,-4.503,-8.525,-1.791,-1.537,1.522,-0.861,91.3,56.6,-63.0,7.463,-13.9,28.9,-27.0,30.1,60.4,111.7,0.0,57.63,12.84155,77.6525,,936.2956543,,110.0,,0 / 1,4681,2017-10-05 18:59:09:735
-6.139,-7.117,-2.696,-4.503,-8.525,-1.791,-1.537,1.522,-0.861,72.1,65.3,-22.7,7.463,-13.9,28.9,-27.0,30.1,60.4,111.7,0.0,49.31,12.84155,77.6525,,936.2956543,,110.0,,0 / 1,4691,2017-10-05 18:59:09:745
-8.159,-8.317,-1.982,-4.279,-8.684,-1.567,-3.749,0.5,-0.383,72.1,65.3,-22.7,7.463,-13.9,28.7,-27.8,30.1,60.4,111.7,0.0,49.31,12.84155,77.6525,,936.2956543,,110.0,,0 / 1,4701,2017-10-05 18:59:09:755
-8.159,-8.317,-1.982,-4.279,-8.684,-1.567,-3.749,0.5,-0.383,28.1,86.6,8.6,7.463,-13.9,28.7,-27.8,30.1,60.4,111.7,0.0,49.31,12.84155,77.6525,,936.2956543,,110.0,,0 / 1,4711,2017-10-05 18:59:09:765
-6.308,-6.932,-1.322,-4.171,-8.743,-1.525,-2.035,1.923,0.225,28.1,86.6,8.6,7.463,-13.9,28.4,-28.3,32.9,62.3,110.1,0.0,49.31,12.84155,77.6525,,936.2956543,,110.0,,0 / 1,4721,2017-10-05 18:59:09:775
-6.308,-6.932,-1.322,-4.171,-8.743,-1.525,-2.035,1.923,0.225,12.2,116.2,10.0,7.463,-13.9,28.4,-28.3,32.9,62.3,110.1,0.0,49.31,12.84155,77.6525,,936.2956543,,110.0,,0 / 1,4731,2017-10-05 18:59:09:785
-3.435,-10.015,-2.732,-4.13,-8.721,-1.749,0.751,-1.134,-0.939,-8.2,98.4,4.8,7.463,-13.8,28.0,-28.9,32.9,62.3,110.1,0.0,49.31,12.84155,77.6525,,936.2956543,,110.0,,0 / 1,4741,2017-10-05 18:59:09:795
-3.435,-10.015,-2.732,-4.13,-8.721,-1.749,0.751,-1.134,-0.939,-8.2,98.4,-19.8,7.463,-13.8,28.0,-28.9,32.9,62.3,110.1,0.0,49.31,12.84155,77.6525,,936.2956543,,110.0,,0 / 1,4751,2017-10-05 18:59:09:805
-3.088,-11.244,-1.085,-4.076,-8.726,-1.847,1.037,-2.337,0.779,-28.5,55.3,-19.8,7.463,-13.6,27.2,-29.3,32.1,62.8,113.0,0.0,49.31,12.84155,77.6525,,936.2956543,,110.0,,0 / 1,4761,2017-10-05 18:59:09:815
-3.088,-11.244,-1.085,-4.076,-8.726,-1.847,1.037,-2.337,0.779,-21.0,12.5,-24.1,7.463,-13.6,27.2,-29.3,32.1,62.8,113.0,0.0,49.31,12.84155,77.6525,,936.2956543,,110.0,,0 / 1,4771,2017-10-05 18:59:09:825
-2.195,-10.53,-0.266,-4.011,-8.726,-1.986,1.851,-1.635,1.725,-21.0,12.5,-24.1,7.463,-13.6,26.8,-30.0,32.1,62.8,113.0,0.0,49.31,12.84155,77.6525,,936.2956543,,110.0,,0 / 1,4781,2017-10-05 18:59:09:835
-2.195,-10.53,-0.266,-4.011,-8.726,-1.986,1.851,-1.635,1.725,-22.0,3.4,-37.8,7.463,-13.6,26.8,-30.0,32.1,62.8,113.0,0.0,49.31,12.84155,77.6525,,936.2956543,,110.0,,0 / 1,4791,2017-10-05 18:59:09:845
-2.306,-8.524,-2.366,-3.888,-8.756,-2.093,1.619,0.369,-0.235,-22.0,3.4,-37.8,7.463,-13.1,26.5,-30.5,32.6,62.8,116.3,0.0,49.31,12.84155,77.6525,,936.2956543,,110.0,,0 / 1,4802,2017-10-05 18:59:09:856
-2.306,-8.524,-2.366,-3.888,-8.756,-2.093,1.619,0.369,-0.235,-33.9,33.4,-41.1,7.463,-13.1,26.5,-30.5,32.6,62.8,116.3,0.0,49.31,12.84155,77.6525,,936.2956543,,110.0,,0 / 1,4811,2017-10-05 18:59:09:865
-4.092,-7.233,-3.317,-3.743,-8.788,-2.222,-0.283,1.67,-1.041,-33.7,58.8,-43.4,7.463,-12.7,26.1,-31.1,32.6,62.8,116.3,0.0,49.31,12.84155,77.6525,,936.2956543,,110.0,,0 / 1,4822,2017-10-05 18:59:09:876
-4.092,-7.233,-3.317,-3.743,-8.788,-2.222,-0.283,1.67,-1.041,-33.7,58.8,-43.4,7.463,-12.7,26.1,-31.1,32.6,62.8,116.3,0.0,49.31,12.84155,77.6525,,936.2956543,,110.0,,0 / 1,4832,2017-10-05 18:59:09:886
-3.906,-7.025,1.203,-3.597,-8.839,-2.26,-0.246,1.926,3.444,-33.7,58.8,-43.4,7.463,-12.3,25.9,-31.5,31.1,63.6,120.7,0.0,49.31,12.84155,77.6525,,936.2956543,,110.0,,0 / 1,4842,2017-10-05 18:59:09:896
-3.906,-7.025,1.203,-3.597,-8.839,-2.26,-0.246,1.926,3.444,-0.4,38.3,-43.7,7.463,-12.3,25.9,-31.5,31.1,63.6,120.7,0.0,49.31,12.84155,77.6525,,936.2956543,,110.0,,0 / 1,4851,2017-10-05 18:59:09:905
-4.65,-7.493,-0.029,-3.469,-8.884,-2.284,-1.106,1.511,2.255,14.6,1.3,-25.4,7.463,-11.8,25.8,-31.6,31.1,63.6,120.7,0.0,49.31,12.84155,77.6525,,936.2956543,,110.0,,0 / 1,4862,2017-10-05 18:59:09:916
-4.65,-7.493,-0.029,-3.469,-8.884,-2.284,-1.106,1.511,2.255,5.5,-55.3,-7.9,7.463,-11.8,25.8,-31.6,31.1,63.6,120.7,0.0,49.31,12.84155,77.6525,,936.2956543,,110.0,,0 / 1,4871,2017-10-05 18:59:09:925
-4.124,-6.829,0.752,-3.387,-8.913,-2.292,-0.67,2.193,3.033,5.5,-55.3,-7.9,7.463,-11.3,25.7,-31.7,30.4,64.9,123.4,0.0,49.31,12.84155,77.6525,,936.2956543,,110.0,,0 / 1,4882,2017-10-05 18:59:09:936
-4.124,-6.829,0.752,-3.387,-8.913,-2.292,-0.67,2.193,3.033,-9.4,-84.2,-3.1,7.463,-11.3,25.7,-31.7,30.4,64.9,123.4,0.0,49.31,12.84155,77.6525,,936.2956543,,110.0,,0 / 1,4891,2017-10-05 18:59:09:945
-3.405,-6.382,-2.225,-3.379,-8.947,-2.168,0.028,2.668,-0.021,-9.4,-84.2,-3.1,7.463,-11.1,25.7,-32.0,30.4,64.9,123.4,0.0,49.31,12.84155,77.6525,,936.2956543,,110.0,,0 / 1,4902,2017-10-05 18:59:09:956
-3.405,-6.382,-2.225,-3.379,-8.947,-2.168,0.028,2.668,-0.021,-40.5,-143.0,-14.8,7.463,-11.1,25.7,-32.0,30.4,64.9,123.4,0.0,49.31,12.84155,77.6525,,936.2956543,,110.0,,0 / 1,4912,2017-10-05 18:59:09:966
-2.071,-7.41,-0.463,-3.442,-8.957,-2.027,1.403,1.665,1.571,-40.5,-143.0,-14.8,7.463,-11.4,26.0,-31.9,31.1,65.8,122.7,0.0,49.31,12.84155,77.6525,,936.2956543,,110.0,,0 / 1,4921,2017-10-05 18:59:09:975
-2.071,-7.41,-0.463,-3.442,-8.957,-2.027,1.403,1.665,1.571,-76.6,-222.5,-49.7,7.463,-11.4,26.0,-31.9,31.1,65.8,122.7,0.0,49.31,12.84155,77.6525,,936.2956543,,110.0,,0 / 1,4932,2017-10-05 18:59:09:986
-1.209,-6.128,0.161,-3.395,-8.983,-1.987,2.206,2.953,2.146,-48.4,-207.6,-77.6,7.463,-11.6,25.8,-31.7,31.1,65.8,122.7,0.0,49.31,12.84155,77.6525,,936.2956543,,110.0,,0 / 1,4941,2017-10-05 18:59:09:995
-4.501,-6.645,-3.183,-3.349,-9.007,-1.958,-1.079,2.468,-1.173,-48.4,-207.6,-77.6,7.463,-11.6,25.8,-31.7,31.1,65.8,122.7,0.0,49.31,12.84155,77.6525,,936.2956543,,110.0,,0 / 1,4952,2017-10-05 18:59:10:006
-4.501,-6.645,-3.183,-3.349,-9.007,-1.958,-1.079,2.468,-1.173,-25.1,-155.7,-87.5,3.198,-11.6,25.8,-31.7,31.1,65.8,122.7,0.0,49.31,12.84155,77.6525,,936.2956543,,110.0,,0 / 1,4961,2017-10-05 18:59:10:015
-5.578,-9.617,-5.03,-3.245,-9.074,-1.818,-2.243,-0.389,-3.132,-25.1,-155.7,-87.5,3.198,-12.3,25.9,-31.3,31.2,66.7,120.3,0.0,49.31,12.84155,77.6525,,936.2956543,,110.0,,0 / 1,4972,2017-10-05 18:59:10:026
-5.578,-9.617,-5.03,-3.245,-9.074,-1.818,-2.243,-0.389,-3.132,-27.8,-132.2,-73.0,3.198,-12.3,25.9,-31.3,31.2,66.7,120.3,0.0,49.31,12.84155,77.6525,,936.2956543,,110.0,,0 / 1,4981,2017-10-05 18:59:10:035
-5.192,-11.259,-4.106,-3.112,-9.131,-1.762,-1.996,-1.947,-2.278,-27.8,-132.2,-73.0,3.198,-13.2,25.9,-31.0,31.2,66.7,120.3,0.0,49.31,12.84155,77.6525,,936.2956543,,110.0,,0 / 1,4992,2017-10-05 18:59:10:046
-5.192,-11.259,-4.106,-3.112,-9.131,-1.762,-1.996,-1.947,-2.278,-29.7,-91.6,-63.7,3.198,-13.2,25.9,-31.0,31.2,66.7,120.3,0.0,49.31,12.84155,77.6525,,936.2956543,,110.0,,0 / 1,5003,2017-10-05 18:59:10:057
-3.058,-8.242,-0.384,-2.992,-9.158,-1.828,-0.017,1.049,1.45,-29.7,-91.6,-63.7,3.198,-14.3,25.9,-30.4,29.1,68.6,119.5,0.0,59.49,12.84155,77.6525,,936.2956543,,110.0,,0 / 1,5011,2017-10-05 18:59:10:065
-3.058,-8.242,-0.384,-2.992,-9.158,-1.828,-0.017,1.049,1.45,-11.3,-75.3,-52.0,3.198,-14.3,25.9,-30.4,29.1,68.6,119.5,0.0,59.49,12.84155,77.6525,,936.2956543,,110.0,,0 / 1,5021,2017-10-05 18:59:10:075
-2.483,-7.971,-0.453,-2.877,-9.195,-1.828,0.434,1.352,1.382,14.3,-64.6,-41.6,3.198,-15.7,26.0,-29.5,29.1,68.6,119.5,0.0,59.49,12.84155,77.6525,,936.2956543,,110.0,,0 / 1,5032,2017-10-05 18:59:10:086
-2.483,-7.971,-0.453,-2.877,-9.195,-1.828,0.434,1.352,1.382,24.7,-38.4,-41.3,3.198,-15.7,26.0,-29.5,29.1,68.6,119.5,0.0,59.49,12.84155,77.6525,,936.2956543,,110.0,,0 / 1,5042,2017-10-05 18:59:10:096
-2.244,-8.855,-1.471,-2.768,-9.243,-1.755,0.56,0.53,0.308,24.7,-38.4,-41.3,3.198,-17.3,26.2,-28.8,22.5,69.7,122.4,0.0,59.49,12.84155,77.6525,,936.2956543,,110.0,,0 / 1,5052,2017-10-05 18:59:10:106
-2.244,-8.855,-1.471,-2.768,-9.243,-1.755,0.56,0.53,0.308,18.6,-18.0,-49.3,3.198,-17.3,26.2,-28.8,22.5,69.7,122.4,0.0,59.49,12.84155,77.6525,,936.2956543,,110.0,,0 / 1,5061,2017-10-05 18:59:10:115
-2.863,-8.446,-1.66,-2.616,-9.313,-1.608,-0.201,1.003,-0.025,15.0,-0.6,-56.0,3.198,-19.1,26.4,-27.8,22.5,69.7,122.4,0.0,59.49,12.84155,77.6525,,936.2956543,,110.0,,0 / 1,5071,2017-10-05 18:59:10:125
-2.863,-8.446,-1.66,-2.616,-9.313,-1.608,-0.201,1.003,-0.025,15.0,-0.6,-56.0,3.198,-19.1,26.4,-27.8,22.5,69.7,122.4,0.0,59.49,12.84155,77.6525,,936.2956543,,110.0,,0 / 1,5082,2017-10-05 18:59:10:136
-3.129,-8.666,-1.271,-2.46,-9.376,-1.49,-0.619,0.848,0.239,15.0,-0.6,-56.0,3.198,-20.4,26.2,-27.0,18.8,72.9,121.2,0.0,59.49,12.84155,77.6525,,936.2956543,,110.0,,0 / 1,5091,2017-10-05 18:59:10:145
-3.129,-8.666,-1.271,-2.46,-9.376,-1.49,-0.619,0.848,0.239,23.4,7.8,-64.8,3.198,-20.4,26.2,-27.0,18.8,72.9,121.2,0.0,59.49,12.84155,77.6525,,936.2956543,,110.0,,0 / 1,5101,2017-10-05 18:59:10:155
-4.786,-9.958,-1.38,-2.275,-9.438,-1.383,-2.435,-0.36,0.025,31.1,0.9,-65.6,3.198,-22.0,26.5,-26.3,18.8,72.9,121.2,0.0,59.49,12.84155,77.6525,,936.2956543,,110.0,,0 / 1,5111,2017-10-05 18:59:10:165
-4.786,-9.958,-1.38,-2.167,-9.47,-1.341,-2.543,-0.328,-0.017,31.1,0.9,-65.6,3.198,-23.3,26.4,-25.7,18.8,72.9,121.2,0.0,59.49,12.84155,77.6525,,936.2956543,,110.0,,0 / 1,5122,2017-10-05 18:59:10:176
-4.786,-9.958,-1.38,-2.167,-9.47,-1.341,-2.543,-0.328,-0.017,33.9,-10.3,-47.1,8.529,-23.3,26.4,-25.7,18.8,72.9,121.2,0.0,59.49,12.84155,77.6525,,936.2956543,,110.0,,0 / 1,5131,2017-10-05 18:59:10:185
-5.357,-9.824,-1.866,-1.982,-9.524,-1.236,-3.289,-0.142,-0.6,33.9,-10.3,-47.1,8.529,-24.4,26.3,-25.3,12.4,74.9,121.7,0.0,59.49,12.84155,77.6525,,936.2956543,,110.0,,0 / 1,5141,2017-10-05 18:59:10:195
-5.357,-9.824,-1.866,-1.982,-9.524,-1.236,-3.289,-0.142,-0.6,34.5,-27.6,-26.5,8.529,-24.4,26.3,-25.3,12.4,74.9,121.7,0.0,59.49,12.84155,77.6525,,936.2956543,,110.0,,0 / 1,5151,2017-10-05 18:59:10:205
-2.306,-8.788,-0.356,-1.926,-9.558,-1.049,-0.343,0.911,0.699,47.3,-17.4,-12.8,8.529,-25.1,25.9,-25.3,12.4,74.9,121.7,0.0,59.49,12.84155,77.6525,,936.2956543,,110.0,,0 / 1,5160,2017-10-05 18:59:10:214
-2.306,-8.788,-0.356,-1.926,-9.558,-1.049,-0.343,0.911,0.699,47.3,-17.4,-4.3,8.529,-25.1,25.9,-25.3,12.4,74.9,121.7,0.0,59.49,12.84155,77.6525,,936.2956543,,110.0,,0 / 1,5171,2017-10-05 18:59:10:225
-1.113,-8.411,0.002,-1.838,-9.59,-0.912,0.742,1.313,0.914,68.1,34.6,-4.3,8.529,-25.7,25.3,-25.5,14.6,77.1,118.6,0.0,59.49,12.84155,77.6525,,936.2956543,,110.0,,0 / 1,5181,2017-10-05 18:59:10:235
-1.113,-8.411,0.002,-1.838,-9.59,-0.912,0.742,1.313,0.914,68.1,34.6,-4.3,8.529,-25.7,25.3,-25.5,14.6,77.1,118.6,0.0,59.49,12.84155,77.6525,,936.2956543,,110.0,,0 / 1,5191,2017-10-05 18:59:10:245
-0.447,-9.832,0.596,-1.794,-9.616,-0.696,1.354,-0.058,1.282,93.6,95.7,-8.5,8.529,-26.4,24.8,-25.6,14.6,77.1,118.6,0.0,59.49,12.84155,77.6525,,936.2956543,,110.0,,0 / 1,5201,2017-10-05 18:59:10:255
-0.447,-9.832,0.596,-1.794,-9.616,-0.696,1.354,-0.058,1.282,121.7,123.7,-8.8,8.529,-26.4,24.8,-25.6,14.6,77.1,118.6,0.0,59.49,12.84155,77.6525,,936.2956543,,110.0,,0 / 1,5211,2017-10-05 18:59:10:265
-1.5,-8.243,1.039,-1.743,-9.645,-0.328,0.267,1.535,1.35,121.7,123.7,-8.8,8.529,-26.6,24.4,-25.8,20.6,78.7,111.2,0.0,59.49,12.84155,77.6525,,936.2956543,,110.0,,0 / 1,5220,2017-10-05 18:59:10:274
-1.5,-8.243,1.039,-1.743,-9.645,-0.328,0.267,1.535,1.35,166.2,128.1,-2.0,8.529,-26.6,24.4,-25.8,20.6,78.7,111.2,0.0,59.49,12.84155,77.6525,,936.2956543,,110.0,,0 / 1,5231,2017-10-05 18:59:10:285
-1.226,-9.557,2.485,-1.747,-9.649,0.124,0.541,0.245,2.322,166.2,128.1,-2.0,8.529,-26.7,23.8,-26.5,20.6,78.7,111.2,0.0,59.49,12.84155,77.6525,,936.2956543,,110.0,,0 / 1,5241,2017-10-05 18:59:10:295
-1.226,-9.557,2.485,-1.747,-9.649,0.124,0.541,0.245,2.322,217.2,5.7,-1.7,8.529,-26.7,23.8,-26.5,20.6,78.7,111.2,0.0,59.49,12.84155,77.6525,,936.2956543,,110.0,,0 / 1,5251,2017-10-05 18:59:10:305
-2.185,-12.074,-3.342,-1.692,-9.639,0.638,-0.458,-2.241,-3.926,161.4,-79.2,-23.0,8.529,-26.3,22.6,-27.1,46.0,79.7,86.0,0.0,59.49,12.84155,77.6525,,936.2956543,,110.0,,0 / 1,5261,2017-10-05 18:59:10:315
-2.185,-12.074,-3.342,-1.692,-9.639,0.638,-0.458,-2.241,-3.926,161.4,-79.2,-23.0,8.529,-26.3,22.6,-27.1,46.0,79.7,86.0,0.0,59.49,12.84155,77.6525,,936.2956543,,110.0,,0 / 1,5272,2017-10-05 18:59:10:326
-2.185,-12.074,-3.342,-1.545,-9.62,1.116,-2.326,2.083,-3.307,55.5,-76.9,-50.0,8.529,-25.8,21.7,-28.0,46.0,79.7,86.0,0.0,59.49,12.84155,77.6525,,936.2956543,,110.0,,0 / 1,5281,2017-10-05 18:59:10:335
-3.934,-7.659,-2.227,-1.545,-9.62,1.116,-2.326,2.083,-3.307,55.5,-76.9,-50.0,8.529,-25.8,21.7,-28.0,46.0,79.7,86.0,0.0,59.49,12.84155,77.6525,,936.2956543,,110.0,,0 / 1,5291,2017-10-05 18:59:10:345
-3.934,-7.659,-2.227,-1.439,-9.575,1.556,-1.544,2.056,-0.824,0.0,-40.2,-44.8,7.463,-25.6,20.4,-29.2,78.5,78.8,54.2,0.0,59.49,12.84155,77.6525,,936.2956543,,110.0,,0 / 1,5301,2017-10-05 18:59:10:355
-3.167,-9.784,1.753,-1.439,-9.575,1.556,-1.544,2.056,-0.824,-28.3,-2.2,-33.9,7.463,-25.6,20.4,-29.2,78.5,78.8,54.2,0.0,59.49,12.84155,77.6525,,936.2956543,,110.0,,0 / 1,5311,2017-10-05 18:59:10:365
-3.167,-9.784,1.753,-1.279,-9.596,1.566,-1.837,-0.031,0.159,-28.3,-2.2,-33.9,7.463,-25.6,19.2,-29.9,78.5,78.8,54.2,0.0,59.49,12.84155,77.6525,,936.2956543,,110.0,,0 / 1,5321,2017-10-05 18:59:10:375
-3.167,-9.784,1.753,-1.279,-9.596,1.566,-1.837,-0.031,0.159,-52.5,19.8,-21.2,7.463,-25.6,19.2,-29.9,78.5,78.8,54.2,0.0,59.49,12.84155,77.6525,,936.2956543,,110.0,,0 / 1,5331,2017-10-05 18:59:10:385
-2.83,-11.228,2.594,-1.226,-9.655,1.203,-1.559,-1.393,1.35,-52.5,19.8,-21.2,7.463,-25.6,18.1,-30.5,94.3,78.1,39.2,0.0,48.01,12.84155,77.6525,,936.2956543,,110.0,,0 / 1,5341,2017-10-05 18:59:10:395
-2.83,-11.228,2.594,-1.226,-9.655,1.203,-1.559,-1.393,1.35,-52.5,19.8,-21.2,7.463,-25.6,18.1,-30.5,94.3,78.1,39.2,0.0,48.01,12.84155,77.6525,,936.2956543,,110.0,,0 / 1,5351,2017-10-05 18:59:10:405
-2.469,-12.893,0.893,-1.17,-9.694,0.907,-1.259,-2.992,-0.028,-132.4,-2.7,-12.9,7.463,-25.2,17.1,-31.2,94.3,78.1,39.2,0.0,48.01,12.84155,77.6525,,936.2956543,,110.0,,0 / 1,5361,2017-10-05 18:59:10:415
-2.469,-12.893,0.893,-1.17,-9.694,0.907,-1.259,-2.992,-0.028,-132.4,-2.7,-12.9,7.463,-25.2,17.1,-31.2,94.3,78.1,39.2,0.0,48.01,12.84155,77.6525,,936.2956543,,110.0,,0 / 1,5372,2017-10-05 18:59:10:426
-1.384,-14.217,3.733,-1.137,-9.718,0.667,-0.225,-4.271,3.006,-133.6,-163.9,7.8,7.463,-25.4,16.3,-31.7,86.4,81.3,52.2,0.0,48.01,12.84155,77.6525,,936.2956543,,110.0,,0 / 1,5382,2017-10-05 18:59:10:436
-1.384,-14.217,3.733,-1.137,-9.718,0.667,-0.225,-4.271,3.006,-59.9,-114.4,11.5,7.463,-25.4,16.3,-31.7,86.4,81.3,52.2,0.0,48.01,12.84155,77.6525,,936.2956543,,110.0,,0 / 1,5391,2017-10-05 18:59:10:445
-3.058,-9.849,-5.345,-1.147,-9.728,0.461,-1.863,0.038,-5.72,-59.9,-114.4,11.5,7.463,-25.6,15.8,-32.0,86.4,81.3,52.2,0.0,48.01,12.84155,77.6525,,936.2956543,,110.0,,0 / 1,5401,2017-10-05 18:59:10:455
-3.058,-9.849,-5.345,-1.147,-9.728,0.461,-1.863,0.038,-5.72,-59.9,-114.4,11.5,7.463,-25.6,15.8,-32.0,86.4,81.3,52.2,0.0,48.01,12.84155,77.6525,,936.2956543,,110.0,,0 / 1,5411,2017-10-05 18:59:10:465
-2.563,-8.218,-4.092,-1.174,-9.73,0.345,-1.348,1.644,-4.371,-3.4,77.7,21.1,7.463,-26.3,15.8,-31.8,70.3,82.8,68.1,0.0,48.01,12.84155,77.6525,,936.2956543,,110.0,,0 / 1,5421,2017-10-05 18:59:10:475
-2.563,-8.218,-4.092,-1.174,-9.73,0.345,-1.348,1.644,-4.371,16.3,122.4,24.6,7.463,-26.3,15.8,-31.8,70.3,82.8,68.1,0.0,48.01,12.84155,77.6525,,936.2956543,,110.0,,0 / 1,5432,2017-10-05 18:59:10:486
-1.013,-7.614,-1.758,-1.227,-9.728,0.194,0.23,2.236,-1.923,16.3,122.4,24.6,7.463,-27.2,16.0,-31.1,70.3,82.8,68.1,0.0,48.01,12.84155,77.6525,,936.2956543,,110.0,,0 / 1,5441,2017-10-05 18:59:10:495
-1.013,-7.614,-1.758,-1.227,-9.728,0.194,0.23,2.236,-1.923,-53.7,-43.9,4.9,7.463,-27.2,16.0,-31.1,70.3,82.8,68.1,0.0,48.01,12.84155,77.6525,,936.2956543,,110.0,,0 / 1,5452,2017-10-05 18:59:10:506
-3.185,-6.407,-1.146,-1.241,-9.725,-0.249,-1.893,3.421,-0.878,-73.5,-43.3,-9.4,7.463,-27.5,16.4,-30.4,53.9,82.7,81.0,0.0,48.01,12.84155,77.6525,,936.2956543,,110.0,,0 / 1,5461,2017-10-05 18:59:10:515
-3.185,-6.407,-1.146,-1.241,-9.725,-0.249,-1.893,3.421,-0.878,-73.5,-43.3,-9.4,9.595,-27.5,16.4,-30.4,53.9,82.7,81.0,0.0,48.01,12.84155,77.6525,,936.2956543,,110.0,,0 / 1,5471,2017-10-05 18:59:10:525
-2.795,-3.745,2.775,-1.228,-9.719,-0.445,-1.522,6.035,3.175,-73.5,-43.3,-9.4,9.595,-27.6,17.2,-29.8,53.9,82.7,81.0,0.0,48.01,12.84155,77.6525,,936.2956543,,110.0,,0 / 1,5481,2017-10-05 18:59:10:535
-2.795,-3.745,2.775,-1.228,-9.719,-0.445,-1.522,6.035,3.175,-47.8,-11.8,-17.4,9.595,-27.6,17.2,-29.8,53.9,82.7,81.0,0.0,48.01,12.84155,77.6525,,936.2956543,,110.0,,0 / 1,5491,2017-10-05 18:59:10:545
-1.949,-4.678,3.238,-1.237,-9.711,-0.582,-0.681,5.108,3.767,2.9,-22.7,-3.2,9.595,-27.7,17.9,-29.3,24.8,82.3,109.9,0.0,48.01,12.84155,77.6525,,936.2956543,,110.0,,0 / 1,5501,2017-10-05 18:59:10:555
-1.949,-4.678,3.238,-1.237,-9.711,-0.582,-0.681,5.108,3.767,2.9,-22.7,-3.2,9.595,-27.7,17.9,-29.3,24.8,82.3,109.9,0.0,48.01,12.84155,77.6525,,936.2956543,,110.0,,0 / 1,5512,2017-10-05 18:59:10:566
-0.719,-10.246,2.002,-1.258,-9.711,-0.526,0.551,-0.37,2.496,47.3,-48.3,10.8,9.595,-28.1,18.7,-28.8,24.8,82.3,109.9,0.0,48.01,12.84155,77.6525,,936.2956543,,110.0,,0 / 1,5521,2017-10-05 18:59:10:575
-0.719,-10.246,2.002,-1.258,-9.711,-0.526,0.551,-0.37,2.496,71.7,-78.1,-9.8,9.595,-28.1,18.7,-28.8,24.8,82.3,109.9,0.0,48.01,12.84155,77.6525,,936.2956543,,110.0,,0 / 1,5532,2017-10-05 18:59:10:586
1.177,-14.968,0.563,-1.183,-9.732,-0.25,2.341,-4.996,0.804,71.7,-78.1,-9.8,9.595,-28.3,19.0,-28.3,21.1,82.0,112.7,0.0,48.01,12.84155,77.6525,,936.2956543,,110.0,,0 / 1,5541,2017-10-05 18:59:10:595
1.177,-14.968,0.563,-1.183,-9.732,-0.25,2.341,-4.996,0.804,88.0,-59.3,-62.6,9.595,-28.3,19.0,-28.3,21.1,82.0,112.7,0.0,48.01,12.84155,77.6525,,936.2956543,,110.0,,0 / 1,5551,2017-10-05 18:59:10:605
2.03,-14.175,-0.665,-1.089,-9.745,0.151,3.086,-4.203,-0.805,88.0,-59.3,-62.6,9.595,-28.5,19.4,-27.5,21.1,82.0,112.7,0.0,48.01,12.84155,77.6525,,936.2956543,,110.0,,0 / 1,5562,2017-10-05 18:59:10:616
1.745,-12.367,-0.513,-1.089,-9.745,0.151,2.6,-2.409,-0.898,103.3,-21.6,-118.7,9.595,-28.5,19.4,-27.5,21.1,82.0,112.7,0.0,48.01,12.84155,77.6525,,936.2956543,,110.0,,0 / 1,5571,2017-10-05 18:59:10:625
1.745,-12.367,-0.513,-0.631,-9.763,0.682,2.6,-2.409,-0.898,130.5,-24.8,-144.8,9.595,-28.5,19.4,-27.5,21.1,82.0,112.7,0.0,48.01,12.84155,77.6525,,936.2956543,,110.0,,0 / 1,5582,2017-10-05 18:59:10:636
0.941,-11.11,1.135,-0.631,-9.763,0.682,1.446,-1.173,0.3,130.5,-24.8,-144.8,9.595,-28.6,19.4,-27.2,87.6,84.6,42.8,0.0,48.01,12.84155,77.6525,,936.2956543,,110.0,,0 / 1,5591,2017-10-05 18:59:10:645
0.941,-11.11,1.135,-0.275,-9.75,1.013,1.446,-1.173,0.3,128.3,-40.0,-140.1,9.595,-28.6,19.4,-27.2,87.6,84.6,42.8,0.0,48.01,12.84155,77.6525,,936.2956543,,110.0,,0 / 1,5601,2017-10-05 18:59:10:655
0.266,-11.025,0.525,-0.275,-9.75,1.013,0.29,-1.116,-0.691,128.3,-40.0,-140.1,9.595,-28.7,19.3,-27.4,87.6,84.6,42.8,0.0,48.01,12.84155,77.6525,,936.2956543,,110.0,,0 / 1,5611,2017-10-05 18:59:10:665
0.266,-11.025,0.525,0.215,-9.713,1.337,0.29,-1.116,-0.691,71.9,-47.7,-133.9,9.595,-28.7,19.3,-27.4,87.6,84.6,42.8,0.0,48.01,12.84155,77.6525,,936.2956543,,110.0,,0 / 1,5621,2017-10-05 18:59:10:675
-0.622,-7.703,1.988,0.215,-9.713,1.337,-1.042,2.119,0.569,28.3,-39.8,-120.7,9.595,-29.3,18.7,-27.5,139.4,82.1,-9.2,0.0,48.01,12.84155,77.6525,,936.2956543,,110.0,,0 / 1,5631,2017-10-05 18:59:10:685
-0.622,-7.703,1.988,0.645,-9.679,1.436,-1.042,2.119,0.569,28.3,-39.8,-120.7,8.529,-29.3,18.7,-27.5,139.4,82.1,-9.2,0.0,48.01,12.84155,77.6525,,936.2956543,,110.0,,0 / 1,5641,2017-10-05 18:59:10:695
-1.265,-7.15,2.492,0.645,-9.679,1.436,-2.105,2.606,0.876,28.3,-39.8,-120.7,8.529,-29.9,17.6,-27.4,139.4,82.1,-9.2,0.0,48.01,12.84155,77.6525,,936.2956543,,110.0,,0 / 1,5651,2017-10-05 18:59:10:705
-1.265,-7.15,2.492,1.04,-9.628,1.548,-2.105,2.606,0.876,-12.6,4.8,-74.2,8.529,-29.9,17.6,-27.4,139.4,82.1,-9.2,0.0,52.05,12.84155,77.6525,,936.2956543,,110.0,,0 / 1,5661,2017-10-05 18:59:10:715
-3.119,-7.636,3.523,1.04,-9.628,1.548,-4.234,2.107,1.966,-12.6,4.8,-74.2,8.529,-30.6,16.3,-27.6,164.6,79.0,-33.9,0.0,52.05,12.84155,77.6525,,936.2956543,,110.0,,0 / 1,5671,2017-10-05 18:59:10:725
-3.94,-10.298,4.296,1.296,-9.59,1.585,-5.173,-0.542,2.642,-2.8,26.0,-31.6,8.529,-31.4,14.8,-27.6,164.6,79.0,-33.9,0.0,52.05,12.84155,77.6525,,936.2956543,,110.0,,0 / 1,5682,2017-10-05 18:59:10:736
-3.94,-10.298,4.296,1.296,-9.59,1.585,-5.173,-0.542,2.642,-2.8,26.0,-31.6,8.529,-31.4,14.8,-27.6,164.6,79.0,-33.9,0.0,52.05,12.84155,77.6525,,936.2956543,,110.0,,0 / 1,5692,2017-10-05 18:59:10:746
-5.441,-12.886,4.186,1.303,-9.578,1.652,-6.656,-3.101,2.467,8.3,31.0,13.2,8.529,-32.0,13.3,-27.7,164.6,79.0,-33.9,0.0,52.05,12.84155,77.6525,,936.2956543,,110.0,,0 / 1,5701,2017-10-05 18:59:10:755
-5.441,-12.886,4.186,1.303,-9.578,1.652,-6.656,-3.101,2.467,8.3,31.0,13.2,8.529,-32.0,13.3,-27.7,164.6,79.0,-33.9,0.0,52.05,12.84155,77.6525,,936.2956543,,110.0,,0 / 1,5711,2017-10-05 18:59:10:765
-7.947,-12.037,4.674,1.278,-9.557,1.791,-9.098,-2.287,2.808,8.3,31.0,13.2,8.529,-32.8,11.7,-28.1,167.6,77.6,-38.3,0.0,52.05,12.84155,77.6525,,936.2956543,,110.0,,0 / 1,5721,2017-10-05 18:59:10:775
-7.947,-12.037,4.674,1.278,-9.557,1.791,-9.098,-2.287,2.808,2.9,-12.8,126.5,8.529,-32.8,11.7,-28.1,167.6,77.6,-38.3,0.0,52.05,12.84155,77.6525,,936.2956543,,110.0,,0 / 1,5731,2017-10-05 18:59:10:785
-7.999,-11.21,2.353,1.003,-9.561,1.937,-8.873,-1.469,0.378,2.9,-12.8,126.5,8.529,-33.4,10.3,-28.3,167.6,77.6,-38.3,0.0,52.05,12.84155,77.6525,,936.2956543,,110.0,,0 / 1,5742,2017-10-05 18:59:10:796
-7.999,-11.21,2.353,1.003,-9.561,1.937,-8.873,-1.469,0.378,-11.8,-22.5,140.3,8.529,-33.4,10.3,-28.3,167.6,77.6,-38.3,0.0,52.05,12.84155,77.6525,,936.2956543,,110.0,,0 / 1,5751,2017-10-05 18:59:10:805
-0.055,-12.19,-5.82,0.509,-9.588,1.994,-0.563,-2.406,-7.72,-11.8,-22.5,140.3,8.529,-33.8,9.1,-28.4,155.2,77.1,-27.4,0.0,52.05,12.84155,77.6525,,936.2956543,,110.0,,0 / 1,5760,2017-10-05 18:59:10:814
-5.376,-11.273,-2.954,0.262,-9.596,2.005,-5.552,-1.497,-4.912,-16.5,27.2,142.9,8.529,-33.8,9.1,-28.4,155.2,77.1,-27.4,0.0,52.05,12.84155,77.6525,,936.2956543,,110.0,,0 / 1,5772,2017-10-05 18:59:10:826
-5.376,-11.273,-2.954,0.262,-9.596,2.005,-5.552,-1.497,-4.912,-90.7,-22.9,200.1,8.529,-33.8,9.1,-28.4,155.2,77.1,-27.4,0.0,52.05,12.84155,77.6525,,936.2956543,,110.0,,0 / 1,5780,2017-10-05 18:59:10:834
-2.132,-15.475,-3.202,-0.433,-9.644,1.724,-1.665,-5.582,-4.874,-90.7,-22.9,200.1,8.529,-34.1,8.5,-28.2,155.2,77.1,-27.4,0.0,52.05,12.84155,77.6525,,936.2956543,,110.0,,0 / 1,5792,2017-10-05 18:59:10:846
-2.132,-15.475,-3.202,-0.433,-9.644,1.724,-1.665,-5.582,-4.874,-218.1,-60.2,166.5,8.529,-34.1,8.5,-28.2,155.2,77.1,-27.4,0.0,52.05,12.84155,77.6525,,936.2956543,,110.0,,0 / 1,5801,2017-10-05 18:59:10:855
6.955,-17.524,-3.332,-0.843,-9.742,0.743,7.687,-7.5,-4.021,-218.1,-60.2,166.5,7.463,-34.4,8.6,-28.4,113.0,79.6,14.1,0.0,52.05,12.84155,77.6525,,936.2956543,,110.0,,0 / 1,5811,2017-10-05 18:59:10:865
2.831,-5.172,2.832,-0.998,-9.753,0.221,3.783,4.665,2.566,-191.6,8.0,94.6,7.463,-34.2,9.2,-28.5,113.0,79.6,14.1,0.0,52.05,12.84155,77.6525,,936.2956543,,110.0,,0 / 1,5822,2017-10-05 18:59:10:876
2.831,-5.172,2.832,-0.998,-9.753,0.221,3.783,4.665,2.566,-106.1,-49.3,38.6,7.463,-34.2,9.2,-28.5,113.0,79.6,14.1,0.0,52.05,12.84155,77.6525,,936.2956543,,110.0,,0 / 1,5831,2017-10-05 18:59:10:885
2.722,-7.217,3.663,-1.403,-9.702,-0.282,4.082,2.601,3.887,-106.1,-49.3,38.6,7.463,-33.8,10.1,-28.1,113.0,79.6,14.1,0.0,52.05,12.84155,77.6525,,936.2956543,,110.0,,0 / 1,5842,2017-10-05 18:59:10:896
2.722,-7.217,3.663,-1.403,-9.702,-0.282,4.082,2.601,3.887,-106.1,-49.3,38.6,7.463,-33.8,10.1,-28.1,113.0,79.6,14.1,0.0,52.05,12.84155,77.6525,,936.2956543,,110.0,,0 / 1,5852,2017-10-05 18:59:10:906
3.122,-7.61,3.309,-1.605,-9.653,-0.648,4.676,2.165,3.905,-20.5,-90.7,16.4,7.463,-33.2,11.8,-27.5,28.1,81.6,101.4,0.0,52.05,12.84155,77.6525,,936.2956543,,110.0,,0 / 1,5861,2017-10-05 18:59:10:915
3.122,-7.61,3.309,-1.605,-9.653,-0.648,4.676,2.165,3.905,-3.0,-53.1,-12.9,7.463,-33.2,11.8,-27.5,28.1,81.6,101.4,0.0,52.05,12.84155,77.6525,,936.2956543,,110.0,,0 / 1,5872,2017-10-05 18:59:10:926
1.398,-3.454,0.976,-1.568,-9.667,-0.503,2.944,6.269,1.463,-12.0,46.6,-36.0,7.463,-32.8,13.5,-26.9,28.1,81.6,101.4,0.0,52.05,12.84155,77.6525,,936.2956543,,110.0,,0 / 1,5881,2017-10-05 18:59:10:935
-2.247,-4.363,1.302,-1.554,-9.671,-0.474,-0.657,5.378,1.756,-12.0,46.6,-36.0,7.463,-32.8,13.5,-26.9,28.1,81.6,101.4,0.0,52.05,12.84155,77.6525,,936.2956543,,110.0,,0 / 1,5893,2017-10-05 18:59:10:947
-2.247,-4.363,1.302,-1.554,-9.671,-0.474,-0.657,5.378,1.756,-12.0,46.6,-36.0,7.463,-32.8,13.5,-26.9,28.1,81.6,101.4,0.0,52.05,12.84155,77.6525,,936.2956543,,110.0,,0 / 1,5901,2017-10-05 18:59:10:955
-4.242,-7.791,1.929,-1.43,-9.696,-0.329,-2.744,2.031,2.227,2.7,45.8,-34.3,7.463,-32.4,15.1,-26.0,21.1,80.5,107.0,0.0,52.05,12.84155,77.6525,,936.2956543,,110.0,,0 / 1,5912,2017-10-05 18:59:10:966
-4.242,-7.791,1.929,-1.43,-9.696,-0.329,-2.744,2.031,2.227,2.7,45.8,-34.3,7.463,-32.4,15.1,-26.0,21.1,80.5,107.0,0.0,52.05,12.84155,77.6525,,936.2956543,,110.0,,0 / 1,5922,2017-10-05 18:59:10:976
-2.597,-9.777,1.507,-1.383,-9.707,-0.187,-1.172,0.087,1.67,15.9,-40.2,-27.5,7.463,-32.2,16.9,-25.2,21.1,80.5,107.0,0.0,52.05,12.84155,77.6525,,936.2956543,,110.0,,0 / 1,5932,2017-10-05 18:59:10:986
-2.597,-9.777,1.507,-1.383,-9.707,-0.187,-1.172,0.087,1.67,19.3,-127.7,-39.0,7.463,-32.2,16.9,-25.2,21.1,80.5,107.0,0.0,52.05,12.84155,77.6525,,936.2956543,,110.0,,0 / 1,5941,2017-10-05 18:59:10:995
-0.956,-10.611,3.056,-1.235,-9.729,-0.018,0.295,-0.712,3.025,41.5,-129.5,-52.3,7.463,-31.9,18.0,-24.5,28.8,81.8,97.7,0.0,52.05,12.84155,77.6525,,936.2956543,,110.0,,0 / 1,5954,2017-10-05 18:59:11:008
-0.956,-10.611,3.056,-1.235,-9.729,-0.018,0.295,-0.712,3.025,41.5,-129.5,-52.3,7.463,-31.9,18.0,-24.5,28.8,81.8,97.7,0.0,52.05,12.84155,77.6525,,936.2956543,,110.0,,0 / 1,5961,2017-10-05 18:59:11:015
-0.689,-9.991,0.395,-1.045,-9.746,0.307,0.367,-0.085,0.081,69.2,-36.9,-55.1,7.463,-31.7,19.0,-23.7,28.8,81.8,97.7,0.0,52.05,12.84155,77.6525,,936.2956543,,110.0,,0 / 1,5971,2017-10-05 18:59:11:025
-0.689,-9.991,0.395,-1.045,-9.746,0.307,0.367,-0.085,0.081,69.2,-36.9,-55.1,7.463,-31.7,19.0,-23.7,28.8,81.8,97.7,0.0,52.05,12.84155,77.6525,,936.2956543,,110.0,,0 / 1,5981,2017-10-05 18:59:11:035
-0.689,-9.991,0.395,-1.045,-9.746,0.307,0.367,-0.085,0.081,94.2,82.2,-57.6,8.529,-31.7,19.0,-23.7,28.8,81.8,97.7,0.0,51.17,12.84155,77.6525,,936.2956543,,110.0,,0 / 1,5991,2017-10-05 18:59:11:045
-0.649,-9.726,-1.214,-0.878,-9.746,0.651,0.239,0.176,-1.846,94.2,82.2,-57.6,8.529,-31.9,19.7,-22.6,49.8,83.6,73.6,0.0,51.17,12.84155,77.6525,,936.2956543,,110.0,,0 / 1,6001,2017-10-05 18:59:11:055
-0.325,-10.853,-1.851,-0.714,-9.728,1.013,0.394,-0.95,-2.834,111.0,125.9,-50.6,8.529,-32.2,20.0,-22.3,49.8,83.6,73.6,0.0,51.17,12.84155,77.6525,,936.2956543,,110.0,,0 / 1,6011,2017-10-05 18:59:11:065
-0.325,-10.853,-1.851,-0.714,-9.728,1.013,0.394,-0.95,-2.834,111.0,125.9,-50.6,8.529,-32.2,20.0,-22.3,49.8,83.6,73.6,0.0,51.17,12.84155,77.6525,,936.2956543,,110.0,,0 / 1,6022,2017-10-05 18:59:11:076
-1.787,-12.34,-1.628,-0.657,-9.714,1.172,-1.102,-2.428,-2.774,104.5,108.4,-45.8,8.529,-32.9,19.4,-22.0,49.8,83.6,73.6,0.0,51.17,12.84155,77.6525,,936.2956543,,110.0,,0 / 1,6031,2017-10-05 18:59:11:085
-3.881,-11.068,-0.616,-0.553,-9.696,1.362,-3.265,-1.194,-1.968,59.3,91.3,-36.5,8.529,-33.4,18.7,-22.3,90.6,82.1,29.2,0.0,51.17,12.84155,77.6525,,936.2956543,,110.0,,0 / 1,6042,2017-10-05 18:59:11:096
-3.881,-11.068,-0.616,-0.553,-9.696,1.362,-3.265,-1.194,-1.968,59.3,91.3,-36.5,8.529,-33.4,18.7,-22.3,90.6,82.1,29.2,0.0,51.17,12.84155,77.6525,,936.2956543,,110.0,,0 / 1,6051,2017-10-05 18:59:11:105
-4.461,-11.089,0.72,-0.551,-9.699,1.337,-3.839,-1.212,-0.628,32.0,85.8,-10.3,8.529,-33.4,18.7,-22.3,90.6,82.1,29.2,0.0,51.17,12.84155,77.6525,,936.2956543,,110.0,,0 / 1,6061,2017-10-05 18:59:11:115
-4.461,-11.089,0.72,-0.551,-9.699,1.337,-3.839,-1.212,-0.628,32.0,85.8,-10.3,8.529,-33.4,18.7,-22.3,90.6,82.1,29.2,0.0,51.17,12.84155,77.6525,,936.2956543,,110.0,,0 / 1,6071,2017-10-05 18:59:11:125
-2.849,-10.258,1.231,-0.543,-9.697,1.36,-2.26,-0.397,-0.149,4.5,82.4,18.2,8.529,-33.7,17.8,-22.8,90.6,82.1,29.2,0.0,51.17,12.84155,77.6525,,936.2956543,,110.0,,0 / 1,6081,2017-10-05 18:59:11:135
-0.867,-9.308,2.602,-0.66,-9.715,1.162,-0.194,0.556,1.399,-25.9,45.8,38.3,8.529,-33.7,16.8,-23.5,98.7,81.4,21.8,0.0,51.17,12.84155,77.6525,,936.2956543,,110.0,,0 / 1,6091,2017-10-05 18:59:11:145
-0.867,-9.308,2.602,-0.66,-9.715,1.162,-0.194,0.556,1.399,-25.9,45.8,38.3,8.529,-33.7,16.8,-23.5,98.7,81.4,21.8,0.0,51.17,12.84155,77.6525,,936.2956543,,110.0,,0 / 1,6101,2017-10-05 18:59:11:155
-0.867,-10.202,3.869,-0.66,-9.715,1.162,-0.194,0.556,1.399,-34.9,26.3,38.8,8.529,-33.7,16.3,-24.2,98.7,81.4,21.8,0.0,51.17,12.84155,77.6525,,936.2956543,,110.0,,0 / 1,6111,2017-10-05 18:59:11:165
1.783,-10.202,3.869,-0.736,-9.717,1.102,2.491,-0.321,2.705,-34.9,26.3,38.8,8.529,-33.7,16.3,-24.2,98.7,81.4,21.8,0.0,51.17,12.84155,77.6525,,936.2956543,,110.0,,0 / 1,6121,2017-10-05 18:59:11:175
1.783,-11.624,4.284,-0.736,-9.717,1.102,2.491,-0.321,2.705,-20.4,32.7,8.7,8.529,-33.5,15.5,-25.3,90.5,82.2,33.8,0.0,51.17,12.84155,77.6525,,936.2956543,,110.0,,0 / 1,6131,2017-10-05 18:59:11:185
2.66,-11.624,4.284,-0.835,-9.716,1.032,3.453,-1.721,3.183,0.4,45.0,-26.2,8.529,-33.5,15.5,-25.3,90.5,82.2,33.8,0.0,51.17,12.84155,77.6525,,936.2956543,,110.0,,0 / 1,6142,2017-10-05 18:59:11:196
2.66,-11.624,4.284,-0.835,-9.716,1.032,3.453,-1.721,3.183,0.4,45.0,-26.2,8.529,-33.5,15.5,-25.3,90.5,82.2,33.8,0.0,51.17,12.84155,77.6525,,936.2956543,,110.0,,0 / 1,6152,2017-10-05 18:59:11:206
