sep=;
ACCELEROMETER X (m/s²);ACCELEROMETER Y (m/s²);ACCELEROMETER Z (m/s²);GRAVITY X (m/s²);GRAVITY Y (m/s²);GRAVITY Z (m/s²);LINEAR ACCELERATION X (m/s²);LINEAR ACCELERATION Y (m/s²);LINEAR ACCELERATION Z (m/s²);GYROSCOPE X (°/s);GYROSCOPE Y (°/s);GYROSCOPE Z (°/s);LIGHT (lux);MAGNETIC FIELD X (μT);MAGNETIC FIELD Y (μT);MAGNETIC FIELD Z (μT);ORIENTATION Z (azimuth °);ORIENTATION X (pitch °);ORIENTATION Y (roll °);PROXIMITY (m);SOUND LEVEL (dB);LOCATION Latitude : ;LOCATION Longitude : ;LOCATION Altitude ( m);LOCATION Altitude-google ( m);LOCATION Speed ( Kmh);LOCATION Accuracy ( m);LOCATION ORIENTATION (°);Satellites in range;Time since start in ms ;YYYY-MO-DD HH-MI-SS_SSS
-0.678588;2.434795;12.059104;0.608685;4.48642;8.880522;1.810589;0.490139;-0.963292;-41.4419;120.4902;-4.2865;0.0;31.5949;9.7137;-10.6796;291.5206;-27.2251;-4.0026;5.0;64.29186;12.846286;77.66219;;NaN;;926.0;;0 / 0;36;2017-10-03 21:24:34:814
-0.678588;2.434795;12.059104;-0.433727;4.137466;8.880522;1.810589;0.490139;-0.963292;-41.4419;120.4902;-4.2865;0.0;31.5949;9.7137;-10.6796;291.5206;-27.2251;-4.0026;5.0;64.29186;12.846286;77.66219;;NaN;;926.0;;0 / 0;46;2017-10-03 21:24:34:824
-0.678588;2.434795;12.059104;-0.433727;4.137466;8.880522;1.810589;0.490139;-0.963292;-41.4419;120.4902;-4.2865;0.0;31.5949;9.7137;-10.6796;291.5206;-27.2251;-4.0026;5.0;64.29186;12.846286;77.66219;;NaN;;926.0;;0 / 0;56;2017-10-03 21:24:34:834
-0.678588;2.434795;12.059104;-0.433727;4.137466;8.880522;1.810589;0.490139;-0.963292;-41.4419;120.4902;-4.2865;0.0;31.5949;9.7137;-10.6796;291.5206;-27.2251;-4.0026;5.0;64.29186;12.846286;77.66219;;NaN;;926.0;;0 / 0;66;2017-10-03 21:24:34:844
0.501069;1.529109;10.142448;-0.433727;4.137466;8.880522;1.810589;0.490139;-0.963292;-41.4419;120.4902;-4.2865;0.0;31.7123;9.7778;-10.4538;293.8873;-24.9549;2.7961;5.0;64.29186;12.846286;77.66219;;NaN;;926.0;;0 / 0;78;2017-10-03 21:24:34:856
0.501069;1.529109;10.142448;-0.433727;4.137466;8.880522;1.810589;0.490139;-0.963292;-41.4419;120.4902;-4.2865;0.0;31.7123;9.7778;-10.4538;293.8873;-24.9549;2.7961;5.0;64.29186;12.846286;77.66219;;NaN;;926.0;;0 / 0;87;2017-10-03 21:24:34:865
0.441239;2.368983;11.46926;-2.277955;3.663768;8.806708;1.950623;0.297773;0.622397;-55.6574;216.3446;10.7054;0.0;31.7123;9.7778;-10.4538;293.8873;-24.9549;2.7961;5.0;64.29186;12.846286;77.66219;;NaN;;926.0;;0 / 0;97;2017-10-03 21:24:34:875
0.441239;2.368983;11.46926;-2.277955;3.663768;8.806708;1.950623;0.297773;0.622397;-55.6574;216.3446;10.7054;0.0;31.7123;9.7778;-10.4538;293.8873;-24.9549;2.7961;5.0;64.29186;12.846286;77.66219;;NaN;;926.0;;0 / 0;106;2017-10-03 21:24:34:884
0.441239;2.368983;11.46926;-2.277955;3.663768;8.806708;1.950623;0.297773;0.622397;-55.6574;216.3446;10.7054;0.0;31.7123;9.7778;-10.4538;293.8873;-24.9549;2.7961;5.0;64.29186;12.846286;77.66219;;NaN;;926.0;;0 / 0;117;2017-10-03 21:24:34:895
0.441239;2.368983;11.46926;-2.277955;3.663768;8.806708;1.950623;0.297773;0.622397;-55.6574;216.3446;10.7054;0.0;31.7123;9.7778;-10.4538;293.8873;-24.9549;2.7961;5.0;64.29186;12.846286;77.66219;;NaN;;926.0;;0 / 0;126;2017-10-03 21:24:34:904
0.441239;2.368983;11.46926;-2.277955;3.663768;8.806708;1.950623;0.297773;0.622397;-55.6574;216.3446;10.7054;0.0;31.7123;9.7778;-10.4538;293.8873;-24.9549;2.7961;5.0;64.29186;12.846286;77.66219;;NaN;;926.0;;0 / 0;136;2017-10-03 21:24:34:914
0.441239;2.368983;11.46926;-2.277955;3.663768;8.806708;1.950623;0.297773;0.622397;-55.6574;216.3446;10.7054;0.0;31.7123;9.7778;-10.4538;293.8873;-24.9549;2.7961;5.0;64.29186;12.846286;77.66219;;NaN;;926.0;;0 / 0;147;2017-10-03 21:24:34:925
0.441239;2.368983;11.46926;-2.277955;3.663768;8.806708;1.950623;0.297773;0.622397;-55.6574;216.3446;10.7054;0.0;31.7123;9.7778;-10.4538;293.8873;-24.9549;2.7961;5.0;64.29186;12.846286;77.66219;;NaN;;926.0;;0 / 0;157;2017-10-03 21:24:34:935
0.441239;2.368983;11.46926;-2.277955;3.663768;8.806708;1.950623;0.297773;0.622397;-55.6574;216.3446;10.7054;0.0;31.7123;9.7778;-10.4538;293.8873;-24.9549;2.7961;5.0;64.29186;12.846286;77.66219;;NaN;;926.0;;0 / 0;167;2017-10-03 21:24:34:945
0.441239;2.368983;11.46926;-2.277955;3.663768;8.806708;1.950623;0.297773;0.622397;-55.6574;216.3446;10.7054;0.0;31.7123;9.7778;-10.4538;293.8873;-24.9549;2.7961;5.0;64.29186;12.846286;77.66219;;NaN;;926.0;;0 / 0;176;2017-10-03 21:24:34:954
1.763276;0.927302;12.476646;-3.03463;3.793256;8.518956;2.682686;0.623081;2.198142;23.717;82.6145;-26.0452;0.0;31.662;9.8831;-10.1379;299.1569;-21.9378;14.5023;5.0;60.89484;12.846286;77.66219;;NaN;;926.0;;0 / 0;187;2017-10-03 21:24:34:965
1.763276;0.927302;12.476646;-3.03463;3.793256;8.518956;2.682686;0.623081;2.198142;23.717;82.6145;-26.0452;0.0;31.662;9.8831;-10.1379;299.1569;-21.9378;14.5023;5.0;60.89484;12.846286;77.66219;;NaN;;926.0;;0 / 0;197;2017-10-03 21:24:34:975
1.763276;0.927302;12.476646;-3.03463;3.793256;8.518956;2.682686;0.623081;2.198142;23.717;82.6145;-26.0452;0.0;31.662;9.8831;-10.1379;299.1569;-21.9378;14.5023;5.0;60.89484;12.846286;77.66219;;NaN;;926.0;;0 / 0;209;2017-10-03 21:24:34:987
-3.60501;2.341472;8.058295;-2.81664;4.182781;8.410784;1.049719;-1.713382;-0.212029;78.1304;-63.7977;-82.4248;0.0;31.662;9.8831;-10.1379;299.1569;-21.9378;14.5023;5.0;60.89484;12.846286;77.66219;;NaN;;926.0;;0 / 0;216;2017-10-03 21:24:34:994
-3.60501;2.341472;8.058295;-2.81664;4.182781;8.410784;1.049719;-1.713382;-0.212029;78.1304;-63.7977;-82.4248;0.0;31.662;9.8831;-10.1379;299.1569;-21.9378;14.5023;5.0;60.89484;12.846286;77.66219;;NaN;;926.0;;0 / 0;226;2017-10-03 21:24:35:004
-3.60501;2.341472;8.058295;-2.81664;4.182781;8.410784;1.049719;-1.713382;-0.212029;78.1304;-63.7977;-82.4248;0.0;31.662;9.8831;-10.1379;299.1569;-21.9378;14.5023;5.0;60.89484;12.846286;77.66219;;NaN;;926.0;;0 / 0;237;2017-10-03 21:24:35:015
-3.60501;2.341472;8.058295;-2.81664;4.182781;8.410784;1.049719;-1.713382;-0.212029;78.1304;-63.7977;-82.4248;0.0;31.662;9.8831;-10.1379;299.1569;-21.9378;14.5023;5.0;60.89484;12.846286;77.66219;;NaN;;926.0;;0 / 0;246;2017-10-03 21:24:35:024
-0.263442;2.48025;9.484428;-2.81664;4.182781;8.410784;1.049719;-1.713382;-0.212029;78.1304;-63.7977;-82.4248;0.0;31.662;9.8831;-10.1379;299.1569;-21.9378;14.5023;5.0;60.89484;12.846286;77.66219;;NaN;;926.0;;0 / 0;257;2017-10-03 21:24:35:035
-0.263442;2.48025;9.484428;-2.81664;4.182781;8.410784;1.049719;-1.713382;-0.212029;78.1304;-63.7977;-82.4248;0.0;31.575;10.2005;-9.4635;301.7655;-25.2472;18.5149;5.0;60.89484;12.846286;77.66219;;NaN;;926.0;;0 / 0;266;2017-10-03 21:24:35:044
-0.263442;2.48025;9.484428;-2.787649;4.255436;8.383953;-0.470874;4.21E-4;-0.277709;23.4189;-26.9658;-44.4668;0.0;31.575;10.2005;-9.4635;301.7655;-25.2472;18.5149;5.0;60.89484;12.846286;77.66219;;NaN;;926.0;;0 / 0;277;2017-10-03 21:24:35:055
-0.263442;2.48025;9.484428;-2.787649;4.255436;8.383953;-0.470874;4.21E-4;-0.277709;23.4189;-26.9658;-44.4668;0.0;31.575;10.2005;-9.4635;301.7655;-25.2472;18.5149;5.0;60.89484;12.846286;77.66219;;NaN;;926.0;;0 / 0;287;2017-10-03 21:24:35:065
-1.731445;1.688228;9.157798;-2.787649;4.255436;8.383953;-0.470874;4.21E-4;-0.277709;23.4189;-26.9658;-44.4668;0.0;31.575;10.2005;-9.4635;301.7655;-25.2472;18.5149;5.0;60.89484;12.846286;77.66219;;NaN;;926.0;;0 / 0;297;2017-10-03 21:24:35:075
-1.731445;1.688228;9.157798;-2.787649;4.255436;8.383953;-0.470874;4.21E-4;-0.277709;23.4189;-26.9658;-44.4668;0.0;31.575;10.2005;-9.4635;301.7655;-25.2472;18.5149;5.0;60.89484;12.846286;77.66219;;NaN;;926.0;;0 / 0;307;2017-10-03 21:24:35:085
-1.731445;1.688228;9.157798;-2.787649;4.255436;8.383953;-0.470874;4.21E-4;-0.277709;23.4189;-26.9658;-44.4668;0.0;31.575;10.2005;-9.4635;301.7655;-25.2472;18.5149;5.0;60.89484;12.846286;77.66219;;NaN;;926.0;;0 / 0;317;2017-10-03 21:24:35:095
-1.374908;2.333095;8.928092;-2.787649;4.255436;8.383953;-0.470874;4.21E-4;-0.277709;32.8347;-70.8154;-40.1331;0.0;31.575;10.2005;-9.4635;301.7655;-25.2472;18.5149;5.0;60.89484;12.846286;77.66219;;NaN;;926.0;;0 / 0;327;2017-10-03 21:24:35:105
-1.374908;2.333095;8.928092;-2.382915;4.416197;8.425516;-0.806347;-0.486171;0.136335;32.8347;-70.8154;-40.1331;0.0;31.5277;10.4919;-9.3735;300.5827;-26.7646;15.792;5.0;60.89484;12.846286;77.66219;;NaN;;926.0;;0 / 0;337;2017-10-03 21:24:35:115
-1.374908;2.333095;8.928092;-2.382915;4.416197;8.425516;-0.806347;-0.486171;0.136335;32.8347;-70.8154;-40.1331;0.0;31.5277;10.4919;-9.3735;300.5827;-26.7646;15.792;5.0;60.89484;12.846286;77.66219;;NaN;;926.0;;0 / 0;346;2017-10-03 21:24:35:124
-1.374908;2.333095;8.928092;-2.382915;4.416197;8.425516;-0.806347;-0.486171;0.136335;32.8347;-70.8154;-40.1331;0.0;31.5277;10.4919;-9.3735;300.5827;-26.7646;15.792;5.0;60.89484;12.846286;77.66219;;NaN;;926.0;;0 / 0;356;2017-10-03 21:24:35:134
0.98082;3.359614;8.785712;-2.382915;4.416197;8.425516;-0.806347;-0.486171;0.136335;32.8347;-70.8154;-40.1331;0.0;31.5277;10.4919;-9.3735;300.5827;-26.7646;15.792;5.0;60.89484;12.846286;77.66219;;NaN;;926.0;;0 / 0;366;2017-10-03 21:24:35:144
0.98082;3.359614;8.785712;-2.382915;4.416197;8.425516;-0.806347;-0.486171;0.136335;32.8347;-70.8154;-40.1331;0.0;31.5277;10.4919;-9.3735;300.5827;-26.7646;15.792;5.0;60.89484;12.846286;77.66219;;NaN;;926.0;;0 / 0;377;2017-10-03 21:24:35:155
0.98082;3.359614;8.785712;-2.188578;4.448452;8.461192;-1.005234;-0.519791;0.098701;13.4855;-41.9402;-31.797;0.0;31.5277;10.4919;-9.3735;300.5827;-26.7646;15.792;5.0;60.89484;12.846286;77.66219;;NaN;;926.0;;0 / 0;386;2017-10-03 21:24:35:164
0.98082;3.359614;8.785712;-2.188578;4.448452;8.461192;-1.005234;-0.519791;0.098701;13.4855;-41.9402;-31.797;0.0;31.5277;10.4919;-9.3735;300.5827;-26.7646;15.792;5.0;60.89484;12.846286;77.66219;;NaN;;926.0;;0 / 0;396;2017-10-03 21:24:35:174
-1.301925;1.706172;8.122901;-2.188578;4.448452;8.461192;-1.005234;-0.519791;0.098701;13.4855;-41.9402;-31.797;0.0;31.4255;10.8948;-9.024;301.8984;-26.9759;14.5023;5.0;60.89484;12.846286;77.66219;;NaN;;926.0;;0 / 0;406;2017-10-03 21:24:35:184
-1.301925;1.706172;8.122901;-2.188578;4.448452;8.461192;-1.005234;-0.519791;0.098701;13.4855;-41.9402;-31.797;0.0;31.4255;10.8948;-9.024;301.8984;-26.9759;14.5023;5.0;60.89484;12.846286;77.66219;;NaN;;926.0;;0 / 0;416;2017-10-03 21:24:35:194
-1.301925;1.706172;8.122901;-2.188578;4.448452;8.461192;-1.005234;-0.519791;0.098701;13.4855;-41.9402;-31.797;0.0;31.4255;10.8948;-9.024;301.8984;-26.9759;14.5023;5.0;60.89484;12.846286;77.66219;;NaN;;926.0;;0 / 0;426;2017-10-03 21:24:35:204
-1.301925;1.706172;8.122901;-2.188578;4.448452;8.461192;-1.005234;-0.519791;0.098701;13.4855;-41.9402;-31.797;0.0;31.4255;10.8948;-9.024;301.8984;-26.9759;14.5023;5.0;60.89484;12.846286;77.66219;;NaN;;926.0;;0 / 0;437;2017-10-03 21:24:35:215
-0.237121;2.312755;8.303565;-1.845435;4.374033;8.580946;0.63218;0.667571;-0.361494;3.6911;-69.8126;-58.6832;0.0;31.4255;10.8948;-9.024;301.8984;-26.9759;14.5023;5.0;60.89484;12.846286;77.66219;;NaN;;926.0;;0 / 0;446;2017-10-03 21:24:35:224
-0.237121;2.312755;8.303565;-1.845435;4.374033;8.580946;0.63218;0.667571;-0.361494;3.6911;-69.8126;-58.6832;0.0;31.4255;10.8948;-9.024;301.8984;-26.9759;14.5023;5.0;60.89484;12.846286;77.66219;;NaN;;926.0;;0 / 0;456;2017-10-03 21:24:35:234
-0.237121;2.312755;8.303565;-1.845435;4.374033;8.580946;0.63218;0.667571;-0.361494;3.6911;-69.8126;-58.6832;0.0;31.4514;11.438;-8.7662;300.4091;-26.4891;12.1373;5.0;60.89484;12.846286;77.66219;;NaN;;926.0;;0 / 0;467;2017-10-03 21:24:35:245
-1.377303;0.861506;9.050132;-1.845435;4.374033;8.580946;0.63218;0.667571;-0.361494;3.6911;-69.8126;-58.6832;0.0;31.4514;11.438;-8.7662;300.4091;-26.4891;12.1373;5.0;60.89484;12.846286;77.66219;;NaN;;926.0;;0 / 0;476;2017-10-03 21:24:35:254
-1.377303;0.861506;9.050132;-1.845435;4.374033;8.580946;0.63218;0.667571;-0.361494;3.6911;-69.8126;-58.6832;0.0;31.4514;11.438;-8.7662;300.4091;-26.4891;12.1373;5.0;60.89484;12.846286;77.66219;;NaN;;926.0;;0 / 0;486;2017-10-03 21:24:35:264
-1.377303;0.861506;9.050132;-1.808484;4.247112;8.652272;-0.337967;0.099794;-0.778785;-5.7824;-28.5762;-46.6726;0.0;31.4514;11.438;-8.7662;300.4091;-26.4891;12.1373;5.0;59.31266;12.846286;77.66219;;NaN;;926.0;;0 / 0;497;2017-10-03 21:24:35:275
-1.377303;0.861506;9.050132;-1.808484;4.247112;8.652272;-0.337967;0.099794;-0.778785;-5.7824;-28.5762;-46.6726;0.0;31.4514;11.438;-8.7662;300.4091;-26.4891;12.1373;5.0;59.31266;12.846286;77.66219;;NaN;;926.0;;0 / 0;506;2017-10-03 21:24:35:284
-1.270812;1.815044;9.094398;-1.808484;4.247112;8.652272;-0.337967;0.099794;-0.778785;-5.7824;-28.5762;-46.6726;0.0;31.4514;11.438;-8.7662;300.4091;-26.4891;12.1373;5.0;59.31266;12.846286;77.66219;;NaN;;926.0;;0 / 0;516;2017-10-03 21:24:35:294
-1.270812;1.815044;9.094398;-1.808484;4.247112;8.652272;-0.337967;0.099794;-0.778785;-5.7824;-28.5762;-46.6726;0.0;31.4514;11.438;-8.7662;300.4091;-26.4891;12.1373;5.0;59.31266;12.846286;77.66219;;NaN;;926.0;;0 / 0;527;2017-10-03 21:24:35:305
-1.270812;1.815044;9.094398;-1.808484;4.247112;8.652272;-0.337967;0.099794;-0.778785;-5.7824;-28.5762;-46.6726;0.0;31.4087;11.9003;-8.4854;300.5659;-25.6635;11.8059;5.0;59.31266;12.846286;77.66219;;NaN;;926.0;;0 / 0;537;2017-10-03 21:24:35:315
-1.270812;1.815044;9.094398;-1.808484;4.247112;8.652272;-0.337967;0.099794;-0.778785;-5.7824;-28.5762;-46.6726;0.0;31.4087;11.9003;-8.4854;300.5659;-25.6635;11.8059;5.0;59.31266;12.846286;77.66219;;NaN;;926.0;;0 / 0;546;2017-10-03 21:24:35:324
-1.830734;2.036388;8.889808;-2.139022;4.294544;8.552886;-0.41341;-0.536408;-0.119299;10.7849;28.0543;-19.8615;0.0;31.4087;11.9003;-8.4854;300.5659;-25.6635;11.8059;5.0;59.31266;12.846286;77.66219;;NaN;;926.0;;0 / 0;556;2017-10-03 21:24:35:334
-1.830734;2.036388;8.889808;-2.139022;4.294544;8.552886;-0.41341;-0.536408;-0.119299;10.7849;28.0543;-19.8615;0.0;31.4087;11.9003;-8.4854;300.5659;-25.6635;11.8059;5.0;59.31266;12.846286;77.66219;;NaN;;926.0;;0 / 0;567;2017-10-03 21:24:35:345
-1.830734;2.036388;8.889808;-2.139022;4.294544;8.552886;-0.41341;-0.536408;-0.119299;10.7849;28.0543;-19.8615;0.0;31.4087;11.9003;-8.4854;300.5659;-25.6635;11.8059;5.0;59.31266;12.846286;77.66219;;NaN;;926.0;;0 / 0;576;2017-10-03 21:24:35:354
-1.830734;2.036388;8.889808;-2.139022;4.294544;8.552886;-0.41341;-0.536408;-0.119299;10.7849;28.0543;-19.8615;0.0;31.4087;11.9003;-8.4854;300.5659;-25.6635;11.8059;5.0;59.31266;12.846286;77.66219;;NaN;;926.0;;0 / 0;587;2017-10-03 21:24:35:365
-1.118881;1.952632;9.22361;-2.139022;4.294544;8.552886;-0.41341;-0.536408;-0.119299;10.7849;28.0543;-19.8615;0.0;31.4087;11.9003;-8.4854;300.5659;-25.6635;11.8059;5.0;59.31266;12.846286;77.66219;;NaN;;926.0;;0 / 0;597;2017-10-03 21:24:35:375
-1.118881;1.952632;9.22361;-2.139022;4.294544;8.552886;-0.41341;-0.536408;-0.119299;10.7849;28.0543;-19.8615;0.0;31.3324;12.4985;-8.0261;301.8551;-25.9713;14.0413;5.0;59.31266;12.846286;77.66219;;NaN;;926.0;;0 / 0;606;2017-10-03 21:24:35:384
-1.118881;1.952632;9.22361;-2.117375;4.424625;8.49175;-0.742071;-0.268233;0.232481;18.0177;-7.669;-7.3202;0.0;31.3324;12.4985;-8.0261;301.8551;-25.9713;14.0413;5.0;59.31266;12.846286;77.66219;;NaN;;926.0;;0 / 0;617;2017-10-03 21:24:35:395
-1.118881;1.952632;9.22361;-2.117375;4.424625;8.49175;-0.742071;-0.268233;0.232481;18.0177;-7.669;-7.3202;0.0;31.3324;12.4985;-8.0261;301.8551;-25.9713;14.0413;5.0;59.31266;12.846286;77.66219;;NaN;;926.0;;0 / 0;626;2017-10-03 21:24:35:404
-1.524459;2.042369;8.924506;-2.117375;4.424625;8.49175;-0.742071;-0.268233;0.232481;18.0177;-7.669;-7.3202;0.0;31.3324;12.4985;-8.0261;301.8551;-25.9713;14.0413;5.0;59.31266;12.846286;77.66219;;NaN;;926.0;;0 / 0;637;2017-10-03 21:24:35:415
-1.524459;2.042369;8.924506;-2.117375;4.424625;8.49175;-0.742071;-0.268233;0.232481;18.0177;-7.669;-7.3202;0.0;31.3324;12.4985;-8.0261;301.8551;-25.9713;14.0413;5.0;59.31266;12.846286;77.66219;;NaN;;926.0;;0 / 0;647;2017-10-03 21:24:35:425
-1.524459;2.042369;8.924506;-2.117375;4.424625;8.49175;-0.742071;-0.268233;0.232481;18.0177;-7.669;-7.3202;0.0;31.3324;12.4985;-8.0261;301.8551;-25.9713;14.0413;5.0;59.31266;12.846286;77.66219;;NaN;;926.0;;0 / 0;657;2017-10-03 21:24:35:435
-0.639114;2.592708;8.643348;-1.984972;4.506933;8.480438;-0.629926;-0.096087;0.024545;11.0813;-19.1254;-4.1055;0.0;31.3324;12.4985;-8.0261;301.8551;-25.9713;14.0413;5.0;59.31266;12.846286;77.66219;;NaN;;926.0;;0 / 0;666;2017-10-03 21:24:35:444
-0.639114;2.592708;8.643348;-1.984972;4.506933;8.480438;-0.629926;-0.096087;0.024545;11.0813;-19.1254;-4.1055;0.0;31.1203;13.3118;-7.8537;302.9357;-27.36;13.1738;5.0;59.31266;12.846286;77.66219;;NaN;;926.0;;0 / 0;677;2017-10-03 21:24:35:455
-0.639114;2.592708;8.643348;-1.984972;4.506933;8.480438;-0.629926;-0.096087;0.024545;11.0813;-19.1254;-4.1055;0.0;31.1203;13.3118;-7.8537;302.9357;-27.36;13.1738;5.0;59.31266;12.846286;77.66219;;NaN;;926.0;;0 / 0;686;2017-10-03 21:24:35:464
-0.639114;2.592708;8.643348;-1.984972;4.506933;8.480438;-0.629926;-0.096087;0.024545;11.0813;-19.1254;-4.1055;0.0;31.1203;13.3118;-7.8537;302.9357;-27.36;13.1738;5.0;59.31266;12.846286;77.66219;;NaN;;926.0;;0 / 0;696;2017-10-03 21:24:35:474
-1.303115;2.566386;8.674446;-1.984972;4.506933;8.480438;-0.629926;-0.096087;0.024545;11.0813;-19.1254;-4.1055;0.0;31.1203;13.3118;-7.8537;302.9357;-27.36;13.1738;5.0;59.31266;12.846286;77.66219;;NaN;;926.0;;0 / 0;707;2017-10-03 21:24:35:485
-1.303115;2.566386;8.674446;-1.984972;4.506933;8.480438;-0.629926;-0.096087;0.024545;11.0813;-19.1254;-4.1055;0.0;31.1203;13.3118;-7.8537;302.9357;-27.36;13.1738;5.0;59.31266;12.846286;77.66219;;NaN;;926.0;;0 / 0;716;2017-10-03 21:24:35:494
-1.303115;2.566386;8.674446;-1.850613;4.393674;8.569786;-0.36419;0.348657;-0.518886;-12.5544;-20.748;-7.7049;0.0;31.1203;13.3118;-7.8537;302.9357;-27.36;13.1738;5.0;59.31266;12.846286;77.66219;;NaN;;926.0;;0 / 0;727;2017-10-03 21:24:35:505
-1.303115;2.566386;8.674446;-1.850613;4.393674;8.569786;-0.36419;0.348657;-0.518886;-12.5544;-20.748;-7.7049;0.0;30.78;14.2014;-7.5623;303.5181;-26.6174;12.1857;5.0;59.31266;12.846286;77.66219;;NaN;;926.0;;0 / 0;736;2017-10-03 21:24:35:514
0.340745;1.214442;8.784522;-1.850613;4.393674;8.569786;-0.36419;0.348657;-0.518886;-12.5544;-20.748;-7.7049;0.0;30.78;14.2014;-7.5623;303.5181;-26.6174;12.1857;5.0;59.31266;12.846286;77.66219;;NaN;;926.0;;0 / 0;747;2017-10-03 21:24:35:525
0.340745;1.214442;8.784522;-1.850613;4.393674;8.569786;-0.36419;0.348657;-0.518886;-12.5544;-20.748;-7.7049;0.0;30.78;14.2014;-7.5623;303.5181;-26.6174;12.1857;5.0;59.31266;12.846286;77.66219;;NaN;;926.0;;0 / 0;756;2017-10-03 21:24:35:534
0.340745;1.214442;8.784522;-1.850613;4.393674;8.569786;-0.36419;0.348657;-0.518886;-12.5544;-20.748;-7.7049;0.0;30.78;14.2014;-7.5623;303.5181;-26.6174;12.1857;5.0;59.31266;12.846286;77.66219;;NaN;;926.0;;0 / 0;766;2017-10-03 21:24:35:544
0.340745;1.214442;8.784522;-1.850613;4.393674;8.569786;-0.36419;0.348657;-0.518886;-12.5544;-20.748;-7.7049;0.0;30.78;14.2014;-7.5623;303.5181;-26.6174;12.1857;5.0;59.31266;12.846286;77.66219;;NaN;;926.0;;0 / 0;776;2017-10-03 21:24:35:554
-1.055465;1.454921;9.076438;-1.625053;4.10015;8.758902;-0.595787;0.650938;-0.70847;-33.1119;-33.6452;-12.5588;0.0;30.78;14.2014;-7.5623;303.5181;-26.6174;12.1857;5.0;59.31266;12.846286;77.66219;;NaN;;926.0;;0 / 0;787;2017-10-03 21:24:35:565
-1.055465;1.454921;9.076438;-1.625053;4.10015;8.758902;-0.595787;0.650938;-0.70847;-33.1119;-33.6452;-12.5588;0.0;30.78;14.2014;-7.5623;303.5181;-26.6174;12.1857;5.0;46.22739;12.846286;77.66219;;NaN;;926.0;;0 / 0;797;2017-10-03 21:24:35:575
-1.055465;1.454921;9.076438;-1.625053;4.10015;8.758902;-0.595787;0.650938;-0.70847;-33.1119;-33.6452;-12.5588;0.0;30.3726;15.2451;-7.1365;303.6599;-24.7146;10.5107;5.0;46.22739;12.846286;77.66219;;NaN;;926.0;;0 / 0;807;2017-10-03 21:24:35:585
-0.871215;2.413249;10.902168;-1.625053;4.10015;8.758902;-0.595787;0.650938;-0.70847;-33.1119;-33.6452;-12.5588;0.0;30.3726;15.2451;-7.1365;303.6599;-24.7146;10.5107;5.0;46.22739;12.846286;77.66219;;NaN;;926.0;;0 / 0;816;2017-10-03 21:24:35:594
-0.871215;2.413249;10.902168;-1.625053;4.10015;8.758902;-0.595787;0.650938;-0.70847;-33.1119;-33.6452;-12.5588;0.0;30.3726;15.2451;-7.1365;303.6599;-24.7146;10.5107;5.0;46.22739;12.846286;77.66219;;NaN;;926.0;;0 / 0;827;2017-10-03 21:24:35:605
-0.871215;2.413249;10.902168;-1.218288;4.029187;8.857302;-0.530645;-0.40659;-0.424222;-8.7278;-44.7405;6.4521;0.0;30.3726;15.2451;-7.1365;303.6599;-24.7146;10.5107;5.0;46.22739;12.846286;77.66219;;NaN;;926.0;;0 / 0;836;2017-10-03 21:24:35:614
-0.871215;2.413249;10.902168;-1.218288;4.029187;8.857302;-0.530645;-0.40659;-0.424222;-8.7278;-44.7405;6.4521;0.0;30.3726;15.2451;-7.1365;303.6599;-24.7146;10.5107;5.0;46.22739;12.846286;77.66219;;NaN;;926.0;;0 / 0;846;2017-10-03 21:24:35:624
2.410538;1.648753;10.587516;-1.218288;4.029187;8.857302;-0.530645;-0.40659;-0.424222;-8.7278;-44.7405;6.4521;0.0;30.3726;15.2451;-7.1365;303.6599;-24.7146;10.5107;5.0;46.22739;12.846286;77.66219;;NaN;;926.0;;0 / 0;857;2017-10-03 21:24:35:635
2.410538;1.648753;10.587516;-1.218288;4.029187;8.857302;-0.530645;-0.40659;-0.424222;-8.7278;-44.7405;6.4521;0.0;30.3726;15.2451;-7.1365;303.6599;-24.7146;10.5107;5.0;46.22739;12.846286;77.66219;;NaN;;926.0;;0 / 0;867;2017-10-03 21:24:35:645
2.410538;1.648753;10.587516;-1.218288;4.029187;8.857302;-0.530645;-0.40659;-0.424222;-8.7278;-44.7405;6.4521;0.0;29.9347;16.3834;-6.9687;303.605;-24.259;7.8317;5.0;46.22739;12.846286;77.66219;;NaN;;926.0;;0 / 0;876;2017-10-03 21:24:35:654
2.410538;1.648753;10.587516;-1.218288;4.029187;8.857302;-0.530645;-0.40659;-0.424222;-8.7278;-44.7405;6.4521;0.0;29.9347;16.3834;-6.9687;303.605;-24.259;7.8317;5.0;46.22739;12.846286;77.66219;;NaN;;926.0;;0 / 0;887;2017-10-03 21:24:35:665
-0.511093;2.827205;9.304954;-1.21088;4.781848;8.475736;0.354047;-0.608367;1.692226;92.283;-9.3669;-18.8238;0.0;29.9347;16.3834;-6.9687;303.605;-24.259;7.8317;5.0;46.22739;12.846286;77.66219;;NaN;;926.0;;0 / 0;897;2017-10-03 21:24:35:675
-0.511093;2.827205;9.304954;-1.21088;4.781848;8.475736;0.354047;-0.608367;1.692226;92.283;-9.3669;-18.8238;0.0;29.9347;16.3834;-6.9687;303.605;-24.259;7.8317;5.0;46.22739;12.846286;77.66219;;NaN;;926.0;;0 / 0;906;2017-10-03 21:24:35:684
-0.511093;2.827205;9.304954;-1.21088;4.781848;8.475736;0.354047;-0.608367;1.692226;92.283;-9.3669;-18.8238;0.0;29.9347;16.3834;-6.9687;303.605;-24.259;7.8317;5.0;46.22739;12.846286;77.66219;;NaN;;926.0;;0 / 0;916;2017-10-03 21:24:35:694
-0.511093;2.827205;9.304954;-1.21088;4.781848;8.475736;0.354047;-0.608367;1.692226;92.283;-9.3669;-18.8238;0.0;29.9347;16.3834;-6.9687;303.605;-24.259;7.8317;5.0;46.22739;12.846286;77.66219;;NaN;;926.0;;0 / 0;927;2017-10-03 21:24:35:705
-0.223953;2.494609;5.322105;-1.21088;4.781848;8.475736;0.354047;-0.608367;1.692226;92.283;-9.3669;-18.8238;0.0;29.4083;17.308;-7.0618;306.1111;-29.1838;8.1305;5.0;46.22739;12.846286;77.66219;;NaN;;926.0;;0 / 0;937;2017-10-03 21:24:35:715
-0.223953;2.494609;5.322105;-1.21088;4.781848;8.475736;0.354047;-0.608367;1.692226;92.283;-9.3669;-18.8238;0.0;29.4083;17.308;-7.0618;306.1111;-29.1838;8.1305;5.0;46.22739;12.846286;77.66219;;NaN;;926.0;;0 / 0;946;2017-10-03 21:24:35:724
-0.223953;2.494609;5.322105;-1.316042;5.298244;8.146596;0.131416;-0.152356;-1.219044;64.4516;1.8972;-17.8787;0.0;29.4083;17.308;-7.0618;306.1111;-29.1838;8.1305;5.0;46.22739;12.846286;77.66219;;NaN;;926.0;;0 / 0;957;2017-10-03 21:24:35:735
-0.223953;2.494609;5.322105;-1.316042;5.298244;8.146596;0.131416;-0.152356;-1.219044;64.4516;1.8972;-17.8787;0.0;29.4083;17.308;-7.0618;306.1111;-29.1838;8.1305;5.0;46.22739;12.846286;77.66219;;NaN;;926.0;;0 / 0;966;2017-10-03 21:24:35:744
1.61493;3.181346;8.104957;-1.316042;5.298244;8.146596;0.131416;-0.152356;-1.219044;64.4516;1.8972;-17.8787;0.0;29.4083;17.308;-7.0618;306.1111;-29.1838;8.1305;5.0;46.22739;12.846286;77.66219;;NaN;;926.0;;0 / 0;977;2017-10-03 21:24:35:755
1.61493;3.181346;8.104957;-1.316042;5.298244;8.146596;0.131416;-0.152356;-1.219044;64.4516;1.8972;-17.8787;0.0;29.4083;17.308;-7.0618;306.1111;-29.1838;8.1305;5.0;46.22739;12.846286;77.66219;;NaN;;926.0;;0 / 0;987;2017-10-03 21:24:35:765
1.61493;3.181346;8.104957;-1.316042;5.298244;8.146596;0.131416;-0.152356;-1.219044;64.4516;1.8972;-17.8787;0.0;29.4083;17.308;-7.0618;306.1111;-29.1838;8.1305;5.0;46.22739;12.846286;77.66219;;NaN;;926.0;;0 / 0;997;2017-10-03 21:24:35:775
0.334763;2.394115;9.711738;-1.515268;4.987782;8.306407;0.751047;0.409226;-1.459638;-37.7429;17.2746;-13.1131;0.0;28.891;18.4433;-6.9977;307.8496;-32.7021;9.1766;5.0;46.22739;12.846286;77.66219;;NaN;;926.0;;0 / 0;1007;2017-10-03 21:24:35:785
0.334763;2.394115;9.711738;-1.515268;4.987782;8.306407;0.751047;0.409226;-1.459638;-37.7429;17.2746;-13.1131;0.0;28.891;18.4433;-6.9977;307.8496;-32.7021;9.1766;5.0;46.22739;12.846286;77.66219;;NaN;;926.0;;0 / 0;1016;2017-10-03 21:24:35:794
0.334763;2.394115;9.711738;-1.515268;4.987782;8.306407;0.751047;0.409226;-1.459638;-37.7429;17.2746;-13.1131;0.0;28.891;18.4433;-6.9977;307.8496;-32.7021;9.1766;5.0;46.22739;12.846286;77.66219;;NaN;;926.0;;0 / 0;1027;2017-10-03 21:24:35:805
-0.890365;1.920329;9.10038;-1.515268;4.987782;8.306407;0.751047;0.409226;-1.459638;-37.7429;17.2746;-13.1131;0.0;28.891;18.4433;-6.9977;307.8496;-32.7021;9.1766;5.0;46.22739;12.846286;77.66219;;NaN;;926.0;;0 / 0;1046;2017-10-03 21:24:35:824
-0.890365;1.920329;9.10038;-1.515268;4.987782;8.306407;0.751047;0.409226;-1.459638;-37.7429;17.2746;-13.1131;0.0;28.891;18.4433;-6.9977;307.8496;-32.7021;9.1766;5.0;46.22739;12.846286;77.66219;;NaN;;926.0;;0 / 0;1047;2017-10-03 21:24:35:825
-0.890365;1.920329;9.10038;-1.515268;4.987782;8.306407;0.751047;0.409226;-1.459638;-37.7429;17.2746;-13.1131;0.0;28.891;18.4433;-6.9977;307.8496;-32.7021;9.1766;5.0;46.22739;12.846286;77.66219;;NaN;;926.0;;0 / 0;1056;2017-10-03 21:24:35:834
-0.890365;1.920329;9.10038;-1.536535;4.880553;8.365981;-0.276238;-0.480443;0.558626;-8.3431;-8.8476;-18.6192;0.0;28.891;18.4433;-6.9977;307.8496;-32.7021;9.1766;5.0;46.22739;12.846286;77.66219;;NaN;;926.0;;0 / 0;1066;2017-10-03 21:24:35:844
-0.890365;1.920329;9.10038;-1.536535;4.880553;8.365981;-0.276238;-0.480443;0.558626;-8.3431;-8.8476;-18.6192;0.0;28.1631;19.725;-7.193;311.5549;-29.8465;10.4072;5.0;46.22739;12.846286;77.66219;;NaN;;926.0;;0 / 0;1077;2017-10-03 21:24:35:855
-0.853271;3.48524;7.10955;-1.536535;4.880553;8.365981;-0.276238;-0.480443;0.558626;-8.3431;-8.8476;-18.6192;0.0;28.1631;19.725;-7.193;311.5549;-29.8465;10.4072;5.0;46.22739;12.846286;77.66219;;NaN;;926.0;;0 / 0;1086;2017-10-03 21:24:35:864
-0.853271;3.48524;7.10955;-1.536535;4.880553;8.365981;-0.276238;-0.480443;0.558626;-8.3431;-8.8476;-18.6192;0.0;28.1631;19.725;-7.193;311.5549;-29.8465;10.4072;5.0;46.22739;12.846286;77.66219;;NaN;;926.0;;0 / 0;1097;2017-10-03 21:24:35:875
-0.853271;3.48524;7.10955;-1.536535;4.880553;8.365981;-0.276238;-0.480443;0.558626;-8.3431;-8.8476;-18.6192;0.0;28.1631;19.725;-7.193;311.5549;-29.8465;10.4072;5.0;54.44742;12.846286;77.66219;;NaN;;926.0;;0 / 0;1107;2017-10-03 21:24:35:885
-0.853271;3.48524;7.10955;-1.536535;4.880553;8.365981;-0.276238;-0.480443;0.558626;-8.3431;-8.8476;-18.6192;0.0;28.1631;19.725;-7.193;311.5549;-29.8465;10.4072;5.0;54.44742;12.846286;77.66219;;NaN;;926.0;;0 / 0;1117;2017-10-03 21:24:35:895
-0.464431;3.263896;10.335074;-1.447986;4.761522;8.449948;-0.63763;0.780003;-0.424957;-16.1774;-10.3933;2.6193;0.0;28.1631;19.725;-7.193;311.5549;-29.8465;10.4072;5.0;54.44742;12.846286;77.66219;;NaN;;926.0;;0 / 0;1126;2017-10-03 21:24:35:904
-0.464431;3.263896;10.335074;-1.447986;4.761522;8.449948;-0.63763;0.780003;-0.424957;-16.1774;-10.3933;2.6193;0.0;27.0599;21.0663;-7.6477;314.0083;-29.0479;9.7238;5.0;54.44742;12.846286;77.66219;;NaN;;926.0;;0 / 0;1137;2017-10-03 21:24:35:915
-0.464431;3.263896;10.335074;-1.447986;4.761522;8.449948;-0.63763;0.780003;-0.424957;-16.1774;-10.3933;2.6193;0.0;27.0599;21.0663;-7.6477;314.0083;-29.0479;9.7238;5.0;54.44742;12.846286;77.66219;;NaN;;926.0;;0 / 0;1147;2017-10-03 21:24:35:925
-0.631942;2.573573;11.480034;-1.447986;4.761522;8.449948;-0.63763;0.780003;-0.424957;-16.1774;-10.3933;2.6193;0.0;27.0599;21.0663;-7.6477;314.0083;-29.0479;9.7238;5.0;54.44742;12.846286;77.66219;;NaN;;926.0;;0 / 0;1156;2017-10-03 21:24:35:934
-0.631942;2.573573;11.480034;-1.447986;4.761522;8.449948;-0.63763;0.780003;-0.424957;-16.1774;-10.3933;2.6193;0.0;27.0599;21.0663;-7.6477;314.0083;-29.0479;9.7238;5.0;54.44742;12.846286;77.66219;;NaN;;926.0;;0 / 0;1167;2017-10-03 21:24:35:945
-0.631942;2.573573;11.480034;-1.17103;4.653456;8.552452;-0.920242;0.889784;-0.530608;-14.3047;-35.4593;-1.4749;0.0;27.0599;21.0663;-7.6477;314.0083;-29.0479;9.7238;5.0;54.44742;12.846286;77.66219;;NaN;;926.0;;0 / 0;1177;2017-10-03 21:24:35:955
-0.631942;2.573573;11.480034;-1.17103;4.653456;8.552452;-0.920242;0.889784;-0.530608;-14.3047;-35.4593;-1.4749;0.0;27.0599;21.0663;-7.6477;314.0083;-29.0479;9.7238;5.0;54.44742;12.846286;77.66219;;NaN;;926.0;;0 / 0;1186;2017-10-03 21:24:35:964
-0.631942;2.573573;11.480034;-1.17103;4.653456;8.552452;-0.920242;0.889784;-0.530608;-14.3047;-35.4593;-1.4749;0.0;27.0599;21.0663;-7.6477;314.0083;-29.0479;9.7238;5.0;54.44742;12.846286;77.66219;;NaN;;926.0;;0 / 0;1197;2017-10-03 21:24:35:975
-0.683379;2.593913;10.47625;-1.17103;4.653456;8.552452;-0.920242;0.889784;-0.530608;-14.3047;-35.4593;-1.4749;0.0;25.7095;22.197;-9.523;316.5277;-28.3281;7.7966;5.0;54.44742;12.846286;77.66219;;NaN;;926.0;;0 / 0;1206;2017-10-03 21:24:35:984
-0.683379;2.593913;10.47625;-1.17103;4.653456;8.552452;-0.920242;0.889784;-0.530608;-14.3047;-35.4593;-1.4749;0.0;25.7095;22.197;-9.523;316.5277;-28.3281;7.7966;5.0;54.44742;12.846286;77.66219;;NaN;;926.0;;0 / 0;1217;2017-10-03 21:24:35:995
-0.683379;2.593913;10.47625;-1.17103;4.653456;8.552452;-0.920242;0.889784;-0.530608;-14.3047;-35.4593;-1.4749;0.0;25.7095;22.197;-9.523;316.5277;-28.3281;7.7966;5.0;54.44742;12.846286;77.66219;;NaN;;926.0;;0 / 0;1226;2017-10-03 21:24:36:004
0.26178;2.730296;9.331276;-0.818887;4.778745;8.524284;-1.180153;0.013046;2.212995;16.215;-41.0948;4.457;0.0;25.7095;22.197;-9.523;316.5277;-28.3281;7.7966;5.0;54.44742;12.846286;77.66219;;NaN;;926.0;;0 / 0;1237;2017-10-03 21:24:36:015
0.26178;2.730296;9.331276;-0.818887;4.778745;8.524284;-1.180153;0.013046;2.212995;16.215;-41.0948;4.457;0.0;25.7095;22.197;-9.523;316.5277;-28.3281;7.7966;5.0;54.44742;12.846286;77.66219;;NaN;;926.0;;0 / 0;1246;2017-10-03 21:24:36:024
0.26178;2.730296;9.331276;-0.818887;4.778745;8.524284;-1.180153;0.013046;2.212995;16.215;-41.0948;4.457;0.0;25.7095;22.197;-9.523;316.5277;-28.3281;7.7966;5.0;54.44742;12.846286;77.66219;;NaN;;926.0;;0 / 0;1257;2017-10-03 21:24:36:035
0.26178;2.730296;9.331276;-0.818887;4.778745;8.524284;-1.180153;0.013046;2.212995;16.215;-41.0948;4.457;0.0;25.7095;22.197;-9.523;316.5277;-28.3281;7.7966;5.0;54.44742;12.846286;77.66219;;NaN;;926.0;;0 / 0;1266;2017-10-03 21:24:36:044
0.661393;2.58195;9.63636;-0.818887;4.778745;8.524284;-1.180153;0.013046;2.212995;16.215;-41.0948;4.457;0.0;24.5972;23.0988;-11.1252;318.1237;-29.163;5.4873;5.0;54.44742;12.846286;77.66219;;NaN;;926.0;;0 / 0;1277;2017-10-03 21:24:36:055
0.661393;2.58195;9.63636;-0.818887;4.778745;8.524284;-1.180153;0.013046;2.212995;16.215;-41.0948;4.457;0.0;24.5972;23.0988;-11.1252;318.1237;-29.163;5.4873;5.0;54.44742;12.846286;77.66219;;NaN;;926.0;;0 / 0;1286;2017-10-03 21:24:36:064
0.661393;2.58195;9.63636;-0.659145;4.883582;8.478594;-0.689178;0.010976;0.642064;12.9898;-20.0591;0.327;0.0;24.5972;23.0988;-11.1252;318.1237;-29.163;5.4873;5.0;54.44742;12.846286;77.66219;;NaN;;926.0;;0 / 0;1297;2017-10-03 21:24:36:075
0.028489;2.497005;9.176948;-0.659145;4.883582;8.478594;-0.689178;0.010976;0.642064;12.9898;-20.0591;0.327;0.0;24.5972;23.0988;-11.1252;318.1237;-29.163;5.4873;5.0;54.44742;12.846286;77.66219;;NaN;;926.0;;0 / 0;1307;2017-10-03 21:24:36:085
0.028489;2.497005;9.176948;-0.659145;4.883582;8.478594;-0.689178;0.010976;0.642064;12.9898;-20.0591;0.327;0.0;24.5972;23.0988;-11.1252;318.1237;-29.163;5.4873;5.0;54.44742;12.846286;77.66219;;NaN;;926.0;;0 / 0;1316;2017-10-03 21:24:36:094
0.028489;2.497005;9.176948;-0.659145;4.883582;8.478594;-0.689178;0.010976;0.642064;12.9898;-20.0591;0.327;0.0;24.5972;23.0988;-11.1252;318.1237;-29.163;5.4873;5.0;54.44742;12.846286;77.66219;;NaN;;926.0;;0 / 0;1326;2017-10-03 21:24:36:104
0.028489;2.497005;9.176948;-0.659145;4.883582;8.478594;-0.689178;0.010976;0.642064;12.9898;-20.0591;0.327;0.0;24.5972;23.0988;-11.1252;318.1237;-29.163;5.4873;5.0;54.44742;12.846286;77.66219;;NaN;;926.0;;0 / 0;1336;2017-10-03 21:24:36:114
0.028489;2.497005;9.176948;-0.651971;5.017032;8.400876;-0.336984;-0.278393;0.480737;12.9898;-20.0591;0.327;0.0;24.4186;23.1033;-11.4838;318.7724;-29.8669;4.4454;5.0;54.44742;12.846286;77.66219;;NaN;;926.0;;0 / 0;1346;2017-10-03 21:24:36:124
0.276139;2.784145;8.365775;-0.651971;5.017032;8.400876;-0.336984;-0.278393;0.480737;17.1487;-4.1344;-4.5261;0.0;24.4186;23.1033;-11.4838;318.7724;-29.8669;4.4454;5.0;54.44742;12.846286;77.66219;;NaN;;926.0;;0 / 0;1357;2017-10-03 21:24:36:135
0.276139;2.784145;8.365775;-0.651971;5.017032;8.400876;-0.336984;-0.278393;0.480737;17.1487;-4.1344;-4.5261;0.0;24.4186;23.1033;-11.4838;318.7724;-29.8669;4.4454;5.0;54.44742;12.846286;77.66219;;NaN;;926.0;;0 / 0;1366;2017-10-03 21:24:36:144
0.276139;2.784145;8.365775;-0.651971;5.017032;8.400876;-0.336984;-0.278393;0.480737;17.1487;-4.1344;-4.5261;0.0;24.4186;23.1033;-11.4838;318.7724;-29.8669;4.4454;5.0;54.44742;12.846286;77.66219;;NaN;;926.0;;0 / 0;1376;2017-10-03 21:24:36:154
0.28212;2.720729;8.347831;-0.651971;5.017032;8.400876;-0.336984;-0.278393;0.480737;17.1487;-4.1344;-4.5261;0.0;24.4186;23.1033;-11.4838;318.7724;-29.8669;4.4454;5.0;54.44742;12.846286;77.66219;;NaN;;926.0;;0 / 0;1387;2017-10-03 21:24:36:165
0.28212;2.720729;8.347831;-0.651971;5.017032;8.400876;-0.336984;-0.278393;0.480737;17.1487;-4.1344;-4.5261;0.0;24.4186;23.1033;-11.4838;318.7724;-29.8669;4.4454;5.0;54.44742;12.846286;77.66219;;NaN;;926.0;;0 / 0;1397;2017-10-03 21:24:36:175
0.28212;2.720729;8.347831;-0.616252;5.103022;8.351634;-0.518034;-0.11874;-0.492619;10.3181;-6.87;-2.4436;0.0;24.2188;22.9935;-11.7996;319.2862;-31.3566;4.2201;5.0;54.44742;12.846286;77.66219;;NaN;;926.0;;0 / 0;1406;2017-10-03 21:24:36:184
0.28212;2.720729;8.347831;-0.616252;5.103022;8.351634;-0.518034;-0.11874;-0.492619;10.3181;-6.87;-2.4436;0.0;24.2188;22.9935;-11.7996;319.2862;-31.3566;4.2201;5.0;54.44742;12.846286;77.66219;;NaN;;926.0;;0 / 0;1417;2017-10-03 21:24:36:195
0.499863;2.744655;9.2248;-0.616252;5.103022;8.351634;-0.518034;-0.11874;-0.492619;10.3181;-6.87;-2.4436;0.0;24.2188;22.9935;-11.7996;319.2862;-31.3566;4.2201;5.0;47.33151;12.846286;77.66219;;NaN;;926.0;;0 / 0;1426;2017-10-03 21:24:36:204
0.499863;2.744655;9.2248;-0.616252;5.103022;8.351634;-0.518034;-0.11874;-0.492619;10.3181;-6.87;-2.4436;0.0;24.2188;22.9935;-11.7996;319.2862;-31.3566;4.2201;5.0;47.33151;12.846286;77.66219;;NaN;;926.0;;0 / 0;1437;2017-10-03 21:24:36:215
0.499863;2.744655;9.2248;-0.616252;5.103022;8.351634;-0.518034;-0.11874;-0.492619;10.3181;-6.87;-2.4436;0.0;24.2188;22.9935;-11.7996;319.2862;-31.3566;4.2201;5.0;47.33151;12.846286;77.66219;;NaN;;926.0;;0 / 0;1447;2017-10-03 21:24:36:225
0.903062;2.970775;8.426796;-0.394169;5.277946;8.255804;-0.415312;-0.186835;0.258154;21.798;-27.9459;-0.2037;0.0;24.2188;22.9935;-11.7996;319.2862;-31.3566;4.2201;5.0;47.33151;12.846286;77.66219;;NaN;;926.0;;0 / 0;1457;2017-10-03 21:24:36:235
0.903062;2.970775;8.426796;-0.394169;5.277946;8.255804;-0.415312;-0.186835;0.258154;21.798;-27.9459;-0.2037;0.0;24.2188;22.9935;-11.7996;319.2862;-31.3566;4.2201;5.0;47.33151;12.846286;77.66219;;NaN;;926.0;;0 / 0;1467;2017-10-03 21:24:36:245
0.903062;2.970775;8.426796;-0.394169;5.277946;8.255804;-0.415312;-0.186835;0.258154;21.798;-27.9459;-0.2037;0.0;23.912;22.85;-12.1658;318.5027;-32.5612;2.7335;5.0;47.33151;12.846286;77.66219;;NaN;;926.0;;0 / 0;1476;2017-10-03 21:24:36:254
0.903062;2.970775;8.426796;-0.394169;5.277946;8.255804;-0.415312;-0.186835;0.258154;21.798;-27.9459;-0.2037;0.0;23.912;22.85;-12.1658;318.5027;-32.5612;2.7335;5.0;47.33151;12.846286;77.66219;;NaN;;926.0;;0 / 0;1486;2017-10-03 21:24:36:264
1.434266;2.907375;7.858497;-0.394169;5.277946;8.255804;-0.415312;-0.186835;0.258154;21.798;-27.9459;-0.2037;0.0;23.912;22.85;-12.1658;318.5027;-32.5612;2.7335;5.0;47.33151;12.846286;77.66219;;NaN;;926.0;;0 / 0;1497;2017-10-03 21:24:36:275
1.434266;2.907375;7.858497;-0.394169;5.277946;8.255804;-0.415312;-0.186835;0.258154;21.798;-27.9459;-0.2037;0.0;23.912;22.85;-12.1658;318.5027;-32.5612;2.7335;5.0;47.33151;12.846286;77.66219;;NaN;;926.0;;0 / 0;1506;2017-10-03 21:24:36:284
1.434266;2.907375;7.858497;-0.156614;5.472356;8.136288;0.095874;-0.223152;-0.653581;21.798;-27.9459;-0.2037;0.0;23.912;22.85;-12.1658;318.5027;-32.5612;2.7335;5.0;47.33151;12.846286;77.66219;;NaN;;926.0;;0 / 0;1516;2017-10-03 21:24:36:294
1.434266;2.907375;7.858497;-0.156614;5.472356;8.136288;0.095874;-0.223152;-0.653581;23.641;-29.0946;-0.0166;0.0;23.912;22.85;-12.1658;318.5027;-32.5612;2.7335;5.0;47.33151;12.846286;77.66219;;NaN;;926.0;;0 / 0;1526;2017-10-03 21:24:36:304
1.827882;2.877467;7.474448;-0.156614;5.472356;8.136288;0.095874;-0.223152;-0.653581;23.641;-29.0946;-0.0166;0.0;23.912;22.85;-12.1658;318.5027;-32.5612;2.7335;5.0;47.33151;12.846286;77.66219;;NaN;;926.0;;0 / 0;1537;2017-10-03 21:24:36:315
1.827882;2.877467;7.474448;-0.156614;5.472356;8.136288;0.095874;-0.223152;-0.653581;23.641;-29.0946;-0.0166;0.0;22.9843;22.7356;-13.4964;319.4514;-33.9193;1.1027;5.0;47.33151;12.846286;77.66219;;NaN;;926.0;;0 / 0;1546;2017-10-03 21:24:36:324
1.827882;2.877467;7.474448;-0.156614;5.472356;8.136288;0.095874;-0.223152;-0.653581;23.641;-29.0946;-0.0166;0.0;22.9843;22.7356;-13.4964;319.4514;-33.9193;1.1027;5.0;47.33151;12.846286;77.66219;;NaN;;926.0;;0 / 0;1557;2017-10-03 21:24:36:335
1.827882;2.877467;7.474448;-0.156614;5.472356;8.136288;0.095874;-0.223152;-0.653581;23.641;-29.0946;-0.0166;0.0;22.9843;22.7356;-13.4964;319.4514;-33.9193;1.1027;5.0;47.33151;12.846286;77.66219;;NaN;;926.0;;0 / 0;1567;2017-10-03 21:24:36:345
3.294694;2.884639;7.856101;0.03797;5.582459;8.062575;-0.103413;-0.329613;-0.568931;13.6429;-26.5523;-3.0503;0.0;22.9843;22.7356;-13.4964;319.4514;-33.9193;1.1027;5.0;47.33151;12.846286;77.66219;;NaN;;926.0;;0 / 0;1576;2017-10-03 21:24:36:354
3.294694;2.884639;7.856101;0.03797;5.582459;8.062575;-0.103413;-0.329613;-0.568931;13.6429;-26.5523;-3.0503;0.0;22.9843;22.7356;-13.4964;319.4514;-33.9193;1.1027;5.0;47.33151;12.846286;77.66219;;NaN;;926.0;;0 / 0;1586;2017-10-03 21:24:36:364
3.294694;2.884639;7.856101;0.03797;5.582459;8.062575;-0.103413;-0.329613;-0.568931;13.6429;-26.5523;-3.0503;0.0;22.9843;22.7356;-13.4964;319.4514;-33.9193;1.1027;5.0;47.33151;12.846286;77.66219;;NaN;;926.0;;0 / 0;1597;2017-10-03 21:24:36:375
3.294694;2.884639;7.856101;0.03797;5.582459;8.062575;-0.103413;-0.329613;-0.568931;13.6429;-26.5523;-3.0503;0.0;22.9843;22.7356;-13.4964;319.4514;-33.9193;1.1027;5.0;47.33151;12.846286;77.66219;;NaN;;926.0;;0 / 0;1606;2017-10-03 21:24:36:384
1.955903;2.754237;8.73667;0.03797;5.582459;8.062575;-0.103413;-0.329613;-0.568931;13.6429;-26.5523;-3.0503;0.0;22.2198;22.4304;-14.6545;320.2824;-34.6981;-0.2698;5.0;47.33151;12.846286;77.66219;;NaN;;926.0;;0 / 0;1616;2017-10-03 21:24:36:394
1.955903;2.754237;8.73667;0.03797;5.582459;8.062575;-0.103413;-0.329613;-0.568931;13.6429;-26.5523;-3.0503;0.0;22.2198;22.4304;-14.6545;320.2824;-34.6981;-0.2698;5.0;47.33151;12.846286;77.66219;;NaN;;926.0;;0 / 0;1627;2017-10-03 21:24:36:405
1.955903;2.754237;8.73667;0.045913;5.621891;8.035086;0.921884;-0.581229;-0.422575;5.3015;-4.5602;-7.8745;0.0;22.2198;22.4304;-14.6545;320.2824;-34.6981;-0.2698;5.0;47.33151;12.846286;77.66219;;NaN;;926.0;;0 / 0;1636;2017-10-03 21:24:36:414
1.955903;2.754237;8.73667;0.045913;5.621891;8.035086;0.921884;-0.581229;-0.422575;5.3015;-4.5602;-7.8745;0.0;22.2198;22.4304;-14.6545;320.2824;-34.6981;-0.2698;5.0;47.33151;12.846286;77.66219;;NaN;;926.0;;0 / 0;1647;2017-10-03 21:24:36:425
0.913834;3.224422;5.53028;0.045913;5.621891;8.035086;0.921884;-0.581229;-0.422575;5.3015;-4.5602;-7.8745;0.0;22.2198;22.4304;-14.6545;320.2824;-34.6981;-0.2698;5.0;47.33151;12.846286;77.66219;;NaN;;926.0;;0 / 0;1657;2017-10-03 21:24:36:435
0.913834;3.224422;5.53028;0.045913;5.621891;8.035086;0.921884;-0.581229;-0.422575;5.3015;-4.5602;-7.8745;0.0;22.2198;22.4304;-14.6545;320.2824;-34.6981;-0.2698;5.0;47.33151;12.846286;77.66219;;NaN;;926.0;;0 / 0;1666;2017-10-03 21:24:36:444
0.913834;3.224422;5.53028;0.045913;5.621891;8.035086;0.921884;-0.581229;-0.422575;5.3015;-4.5602;-7.8745;0.0;22.2198;22.4304;-14.6545;320.2824;-34.6981;-0.2698;5.0;47.33151;12.846286;77.66219;;NaN;;926.0;;0 / 0;1677;2017-10-03 21:24:36:455
1.510834;0.302791;7.783118;0.324415;5.557086;8.073656;0.233066;-0.248362;-1.183273;-9.1535;-42.5705;-11.841;0.0;21.9238;22.2778;-15.1474;320.2481;-34.9788;-0.3274;5.0;47.33151;12.846286;77.66219;;NaN;;926.0;;0 / 0;1686;2017-10-03 21:24:36:464
1.510834;0.302791;7.783118;0.324415;5.557086;8.073656;0.233066;-0.248362;-1.183273;-9.1535;-42.5705;-11.841;0.0;21.9238;22.2778;-15.1474;320.2481;-34.9788;-0.3274;5.0;47.33151;12.846286;77.66219;;NaN;;926.0;;0 / 0;1696;2017-10-03 21:24:36:474
1.510834;0.302791;7.783118;0.324415;5.557086;8.073656;0.233066;-0.248362;-1.183273;-9.1535;-42.5705;-11.841;0.0;21.9238;22.2778;-15.1474;320.2481;-34.9788;-0.3274;5.0;47.33151;12.846286;77.66219;;NaN;;926.0;;0 / 0;1706;2017-10-03 21:24:36:484
1.510834;0.302791;7.783118;0.324415;5.557086;8.073656;0.233066;-0.248362;-1.183273;-9.1535;-42.5705;-11.841;0.0;21.9238;22.2778;-15.1474;320.2481;-34.9788;-0.3274;5.0;47.33151;12.846286;77.66219;;NaN;;926.0;;0 / 0;1717;2017-10-03 21:24:36:495
3.228882;0.962001;0.764976;0.324415;5.557086;8.073656;0.233066;-0.248362;-1.183273;-9.1535;-42.5705;-11.841;0.0;21.9238;22.2778;-15.1474;320.2481;-34.9788;-0.3274;5.0;49.66803;12.846286;77.66219;;NaN;;926.0;;0 / 0;1726;2017-10-03 21:24:36:504
3.228882;0.962001;0.764976;0.324415;5.557086;8.073656;0.233066;-0.248362;-1.183273;-9.1535;-42.5705;-11.841;0.0;21.9238;22.2778;-15.1474;320.2481;-34.9788;-0.3274;5.0;49.66803;12.846286;77.66219;;NaN;;926.0;;0 / 0;1737;2017-10-03 21:24:36:515
3.228882;0.962001;0.764976;2.084574;5.663582;7.729733;-2.046232;-2.235646;-2.324733;21.1965;-193.2176;45.2266;0.0;20.8649;21.6537;-16.7679;321.5381;-34.518;-2.301;5.0;49.66803;12.846286;77.66219;;NaN;;926.0;;0 / 0;1747;2017-10-03 21:24:36:525
3.228882;0.962001;0.764976;2.084574;5.663582;7.729733;-2.046232;-2.235646;-2.324733;21.1965;-193.2176;45.2266;0.0;20.8649;21.6537;-16.7679;321.5381;-34.518;-2.301;5.0;49.66803;12.846286;77.66219;;NaN;;926.0;;0 / 0;1756;2017-10-03 21:24:36:534
1.138749;-3.693227;4.13288;2.084574;5.663582;7.729733;-2.046232;-2.235646;-2.324733;21.1965;-193.2176;45.2266;0.0;20.8649;21.6537;-16.7679;321.5381;-34.518;-2.301;5.0;49.66803;12.846286;77.66219;;NaN;;926.0;;0 / 0;1767;2017-10-03 21:24:36:545
1.138749;-3.693227;4.13288;2.084574;5.663582;7.729733;-2.046232;-2.235646;-2.324733;21.1965;-193.2176;45.2266;0.0;20.8649;21.6537;-16.7679;321.5381;-34.518;-2.301;5.0;49.66803;12.846286;77.66219;;NaN;;926.0;;0 / 0;1776;2017-10-03 21:24:36:554
1.138749;-3.693227;4.13288;2.084574;5.663582;7.729733;-2.046232;-2.235646;-2.324733;21.1965;-193.2176;45.2266;0.0;20.8649;21.6537;-16.7679;321.5381;-34.518;-2.301;5.0;49.66803;12.846286;77.66219;;NaN;;926.0;;0 / 0;1787;2017-10-03 21:24:36:565
1.138749;-3.693227;4.13288;2.084574;5.663582;7.729733;-2.046232;-2.235646;-2.324733;21.1965;-193.2176;45.2266;0.0;20.8649;21.6537;-16.7679;321.5381;-34.518;-2.301;5.0;49.66803;12.846286;77.66219;;NaN;;926.0;;0 / 0;1796;2017-10-03 21:24:36:574
2.085114;-4.547475;-1.967629;5.960794;5.550327;5.461979;-5.28227;-6.57287;-3.573671;88.1582;-424.8259;163.1255;0.0;20.8649;21.6537;-16.7679;321.5381;-34.518;-2.301;5.0;49.66803;12.846286;77.66219;;NaN;;926.0;;0 / 0;1806;2017-10-03 21:24:36:584
2.085114;-4.547475;-1.967629;5.960794;5.550327;5.461979;-5.28227;-6.57287;-3.573671;88.1582;-424.8259;163.1255;0.0;18.7469;20.8481;-18.7805;301.8079;-34.4701;-47.5004;5.0;49.66803;12.846286;77.66219;;NaN;;926.0;;0 / 0;1816;2017-10-03 21:24:36:594
2.085114;-4.547475;-1.967629;5.960794;5.550327;5.461979;-5.28227;-6.57287;-3.573671;88.1582;-424.8259;163.1255;0.0;18.7469;20.8481;-18.7805;301.8079;-34.4701;-47.5004;5.0;49.66803;12.846286;77.66219;;NaN;;926.0;;0 / 0;1827;2017-10-03 21:24:36:605
2.085114;-4.547475;-1.967629;5.960794;5.550327;5.461979;-5.28227;-6.57287;-3.573671;88.1582;-424.8259;163.1255;0.0;18.7469;20.8481;-18.7805;301.8079;-34.4701;-47.5004;5.0;49.66803;12.846286;77.66219;;NaN;;926.0;;0 / 0;1837;2017-10-03 21:24:36:615
7.342149;-9.887058;-0.167031;5.960794;5.550327;5.461979;-5.28227;-6.57287;-3.573671;88.1582;-424.8259;163.1255;0.0;18.7469;20.8481;-18.7805;301.8079;-34.4701;-47.5004;5.0;49.66803;12.846286;77.66219;;NaN;;926.0;;0 / 0;1847;2017-10-03 21:24:36:625
7.342149;-9.887058;-0.167031;8.903232;3.135408;2.659336;-5.314658;-8.054646;-3.9523;88.1582;-424.8259;163.1255;0.0;18.7469;20.8481;-18.7805;301.8079;-34.4701;-47.5004;5.0;49.66803;12.846286;77.66219;;NaN;;926.0;;0 / 0;1857;2017-10-03 21:24:36:635
7.342149;-9.887058;-0.167031;8.903232;3.135408;2.659336;-5.314658;-8.054646;-3.9523;53.3214;-329.7008;326.6059;0.0;18.7469;20.8481;-18.7805;301.8079;-34.4701;-47.5004;5.0;49.66803;12.846286;77.66219;;NaN;;926.0;;0 / 0;1867;2017-10-03 21:24:36:645
7.342149;-9.887058;-0.167031;8.903232;3.135408;2.659336;-5.314658;-8.054646;-3.9523;53.3214;-329.7008;326.6059;0.0;18.7469;20.8481;-18.7805;301.8079;-34.4701;-47.5004;5.0;49.66803;12.846286;77.66219;;NaN;;926.0;;0 / 0;1876;2017-10-03 21:24:36:654
10.927796;-8.2049;-0.102426;8.903232;3.135408;2.659336;-5.314658;-8.054646;-3.9523;53.3214;-329.7008;326.6059;0.0;15.7486;20.0058;-20.2896;303.7741;-18.6461;-73.3695;5.0;49.66803;12.846286;77.66219;;NaN;;926.0;;0 / 0;1887;2017-10-03 21:24:36:665
10.927796;-8.2049;-0.102426;8.903232;3.135408;2.659336;-5.314658;-8.054646;-3.9523;53.3214;-329.7008;326.6059;0.0;15.7486;20.0058;-20.2896;303.7741;-18.6461;-73.3695;5.0;49.66803;12.846286;77.66219;;NaN;;926.0;;0 / 0;1897;2017-10-03 21:24:36:675
10.927796;-8.2049;-0.102426;8.903232;3.135408;2.659336;-5.314658;-8.054646;-3.9523;53.3214;-329.7008;326.6059;0.0;15.7486;20.0058;-20.2896;303.7741;-18.6461;-73.3695;5.0;49.66803;12.846286;77.66219;;NaN;;926.0;;0 / 0;1906;2017-10-03 21:24:36:684
18.4915;-5.82404;4.110145;9.695942;-0.583799;1.348444;-6.031439;-4.35666;-2.637293;-16.8602;-134.9479;376.0499;0.0;15.7486;20.0058;-20.2896;303.7741;-18.6461;-73.3695;5.0;49.66803;12.846286;77.66219;;NaN;;926.0;;0 / 0;1917;2017-10-03 21:24:36:695
18.4915;-5.82404;4.110145;9.695942;-0.583799;1.348444;-6.031439;-4.35666;-2.637293;-16.8602;-134.9479;376.0499;0.0;15.7486;20.0058;-20.2896;303.7741;-18.6461;-73.3695;5.0;49.66803;12.846286;77.66219;;NaN;;926.0;;0 / 0;1927;2017-10-03 21:24:36:705
18.4915;-5.82404;4.110145;9.695942;-0.583799;1.348444;-6.031439;-4.35666;-2.637293;-16.8602;-134.9479;376.0499;0.0;15.7486;20.0058;-20.2896;303.7741;-18.6461;-73.3695;5.0;49.66803;12.846286;77.66219;;NaN;;926.0;;0 / 0;1936;2017-10-03 21:24:36:714
18.4915;-5.82404;4.110145;9.695942;-0.583799;1.348444;-6.031439;-4.35666;-2.637293;-16.8602;-134.9479;376.0499;0.0;12.7579;19.2612;-22.3648;309.6642;3.4129;-82.0825;5.0;49.66803;12.846286;77.66219;;NaN;;926.0;;0 / 0;1947;2017-10-03 21:24:36:725
13.867372;-7.929723;10.571952;9.695942;-0.583799;1.348444;-6.031439;-4.35666;-2.637293;-16.8602;-134.9479;376.0499;0.0;12.7579;19.2612;-22.3648;309.6642;3.4129;-82.0825;5.0;49.66803;12.846286;77.66219;;NaN;;926.0;;0 / 0;1956;2017-10-03 21:24:36:734
13.867372;-7.929723;10.571952;9.695942;-0.583799;1.348444;-6.031439;-4.35666;-2.637293;-16.8602;-134.9479;376.0499;0.0;12.7579;19.2612;-22.3648;309.6642;3.4129;-82.0825;5.0;49.66803;12.846286;77.66219;;NaN;;926.0;;0 / 0;1967;2017-10-03 21:24:36:745
13.867372;-7.929723;10.571952;9.272142;-3.182188;0.267326;4.447108;-1.673505;1.484659;-16.8252;-111.7887;269.4509;0.0;12.7579;19.2612;-22.3648;309.6642;3.4129;-82.0825;5.0;49.66803;12.846286;77.66219;;NaN;;926.0;;0 / 0;1976;2017-10-03 21:24:36:754
13.867372;-7.929723;10.571952;9.272142;-3.182188;0.267326;4.447108;-1.673505;1.484659;-16.8252;-111.7887;269.4509;0.0;12.7579;19.2612;-22.3648;309.6642;3.4129;-82.0825;5.0;49.66803;12.846286;77.66219;;NaN;;926.0;;0 / 0;1987;2017-10-03 21:24:36:765
22.543747;-7.697621;7.590507;9.272142;-3.182188;0.267326;4.447108;-1.673505;1.484659;-16.8252;-111.7887;269.4509;0.0;12.7579;19.2612;-22.3648;309.6642;3.4129;-82.0825;5.0;49.66803;12.846286;77.66219;;NaN;;926.0;;0 / 0;1997;2017-10-03 21:24:36:775
22.543747;-7.697621;7.590507;9.272142;-3.182188;0.267326;4.447108;-1.673505;1.484659;-16.8252;-111.7887;269.4509;0.0;12.7579;19.2612;-22.3648;309.6642;3.4129;-82.0825;5.0;49.66803;12.846286;77.66219;;NaN;;926.0;;0 / 0;2007;2017-10-03 21:24:36:785
22.543747;-7.697621;7.590507;9.272142;-3.182188;0.267326;4.447108;-1.673505;1.484659;-16.8252;-111.7887;269.4509;0.0;9.7855;18.0573;-24.8169;308.4012;18.9349;-88.3486;5.0;49.66803;12.846286;77.66219;;NaN;;926.0;;0 / 0;2016;2017-10-03 21:24:36:794
22.543747;-7.697621;7.590507;9.272142;-3.182188;0.267326;4.447108;-1.673505;1.484659;-16.8252;-111.7887;269.4509;0.0;9.7855;18.0573;-24.8169;308.4012;18.9349;-88.3486;5.0;49.66803;12.846286;77.66219;;NaN;;926.0;;0 / 0;2027;2017-10-03 21:24:36:805
23.106064;-6.66631;5.141456;8.37659;-5.077316;0.473289;6.69924;-0.201794;8.61295;145.2905;-64.4805;222.3805;0.0;9.7855;18.0573;-24.8169;308.4012;18.9349;-88.3486;5.0;45.90978;12.846286;77.66219;;NaN;;926.0;;0 / 0;2038;2017-10-03 21:24:36:816
23.106064;-6.66631;5.141456;8.37659;-5.077316;0.473289;6.69924;-0.201794;8.61295;145.2905;-64.4805;222.3805;0.0;9.7855;18.0573;-24.8169;308.4012;18.9349;-88.3486;5.0;45.90978;12.846286;77.66219;;NaN;;926.0;;0 / 0;2047;2017-10-03 21:24:36:825
23.106064;-6.66631;5.141456;8.37659;-5.077316;0.473289;6.69924;-0.201794;8.61295;145.2905;-64.4805;222.3805;0.0;9.7855;18.0573;-24.8169;308.4012;18.9349;-88.3486;5.0;45.90978;12.846286;77.66219;;NaN;;926.0;;0 / 0;2057;2017-10-03 21:24:36:835
19.705856;-7.324345;1.56179;8.37659;-5.077316;0.473289;6.69924;-0.201794;8.61295;145.2905;-64.4805;222.3805;0.0;9.7855;18.0573;-24.8169;308.4012;18.9349;-88.3486;5.0;45.90978;12.846286;77.66219;;NaN;;926.0;;0 / 0;2066;2017-10-03 21:24:36:844
19.705856;-7.324345;1.56179;8.37659;-5.077316;0.473289;6.69924;-0.201794;8.61295;145.2905;-64.4805;222.3805;0.0;9.7855;18.0573;-24.8169;308.4012;18.9349;-88.3486;5.0;45.90978;12.846286;77.66219;;NaN;;926.0;;0 / 0;2076;2017-10-03 21:24:36:854
19.705856;-7.324345;1.56179;8.37659;-5.077316;0.473289;6.69924;-0.201794;8.61295;145.2905;-64.4805;222.3805;0.0;9.7855;18.0573;-24.8169;308.4012;18.9349;-88.3486;5.0;45.90978;12.846286;77.66219;;NaN;;926.0;;0 / 0;2087;2017-10-03 21:24:36:865
19.705856;-7.324345;1.56179;8.37659;-5.077316;0.473289;6.69924;-0.201794;8.61295;145.2905;-64.4805;222.3805;0.0;9.7855;18.0573;-24.8169;308.4012;18.9349;-88.3486;5.0;45.90978;12.846286;77.66219;;NaN;;926.0;;0 / 0;2097;2017-10-03 21:24:36:875
19.705856;-7.324345;1.56179;8.37659;-5.077316;0.473289;6.69924;-0.201794;8.61295;145.2905;-64.4805;222.3805;0.0;9.7855;18.0573;-24.8169;308.4012;18.9349;-88.3486;5.0;45.90978;12.846286;77.66219;;NaN;;926.0;;0 / 0;2107;2017-10-03 21:24:36:885
19.705856;-7.324345;1.56179;8.37659;-5.077316;0.473289;6.69924;-0.201794;8.61295;145.2905;-64.4805;222.3805;0.0;9.7855;18.0573;-24.8169;308.4012;18.9349;-88.3486;5.0;45.90978;12.846286;77.66219;;NaN;;926.0;;0 / 0;2116;2017-10-03 21:24:36:894
19.705856;-7.324345;1.56179;8.37659;-5.077316;0.473289;6.69924;-0.201794;8.61295;145.2905;-64.4805;222.3805;0.0;9.7855;18.0573;-24.8169;308.4012;18.9349;-88.3486;5.0;45.90978;12.846286;77.66219;;NaN;;926.0;;0 / 0;2127;2017-10-03 21:24:36:905
19.705856;-7.324345;1.56179;8.37659;-5.077316;0.473289;6.69924;-0.201794;8.61295;145.2905;-64.4805;222.3805;0.0;9.7855;18.0573;-24.8169;308.4012;18.9349;-88.3486;5.0;45.90978;12.846286;77.66219;;NaN;;926.0;;0 / 0;2137;2017-10-03 21:24:36:915
19.705856;-7.324345;1.56179;8.37659;-5.077316;0.473289;6.69924;-0.201794;8.61295;145.2905;-64.4805;222.3805;0.0;9.7855;18.0573;-24.8169;308.4012;18.9349;-88.3486;5.0;45.90978;12.846286;77.66219;;NaN;;926.0;;0 / 0;2147;2017-10-03 21:24:36:925
19.705856;-7.324345;1.56179;8.37659;-5.077316;0.473289;6.69924;-0.201794;8.61295;145.2905;-64.4805;222.3805;0.0;9.7855;18.0573;-24.8169;308.4012;18.9349;-88.3486;5.0;45.90978;12.846286;77.66219;;NaN;;926.0;;0 / 0;2157;2017-10-03 21:24:36:935
19.705856;-7.324345;1.56179;8.37659;-5.077316;0.473289;6.69924;-0.201794;8.61295;145.2905;-64.4805;222.3805;0.0;9.7855;18.0573;-24.8169;308.4012;18.9349;-88.3486;5.0;45.90978;12.846286;77.66219;;NaN;;926.0;;0 / 0;2167;2017-10-03 21:24:36:945
19.705856;-7.324345;1.56179;8.37659;-5.077316;0.473289;6.69924;-0.201794;8.61295;145.2905;-64.4805;222.3805;0.0;9.7855;18.0573;-24.8169;308.4012;18.9349;-88.3486;5.0;45.90978;12.846286;77.66219;;NaN;;926.0;;0 / 0;2176;2017-10-03 21:24:36:954
19.705856;-7.324345;1.56179;8.37659;-5.077316;0.473289;6.69924;-0.201794;8.61295;145.2905;-64.4805;222.3805;0.0;9.7855;18.0573;-24.8169;308.4012;18.9349;-88.3486;5.0;45.90978;12.846286;77.66219;;NaN;;926.0;;0 / 0;2187;2017-10-03 21:24:36:965
19.705856;-7.324345;1.56179;8.37659;-5.077316;0.473289;6.69924;-0.201794;8.61295;145.2905;-64.4805;222.3805;0.0;9.7855;18.0573;-24.8169;308.4012;18.9349;-88.3486;5.0;45.90978;12.846286;77.66219;;NaN;;926.0;;0 / 0;2196;2017-10-03 21:24:36:974
19.705856;-7.324345;1.56179;8.37659;-5.077316;0.473289;6.69924;-0.201794;8.61295;145.2905;-64.4805;222.3805;0.0;9.7855;18.0573;-24.8169;308.4012;18.9349;-88.3486;5.0;45.90978;12.846286;77.66219;;NaN;;926.0;;0 / 0;2206;2017-10-03 21:24:36:984
20.016922;-6.517964;-0.188561;8.04225;-5.49141;1.156293;12.90931;0.985315;3.409739;215.5481;-65.5654;85.086;0.0;5.8533;15.5563;-27.7603;299.4454;31.1809;-86.7661;0.0;45.90978;12.846286;77.66219;;NaN;;926.0;;0 / 0;2219;2017-10-03 21:24:36:997
20.016922;-6.517964;-0.188561;8.04225;-5.49141;1.156293;12.90931;0.985315;3.409739;215.5481;-65.5654;85.086;0.0;5.8533;15.5563;-27.7603;299.4454;31.1809;-86.7661;0.0;45.90978;12.846286;77.66219;;NaN;;926.0;;0 / 0;2226;2017-10-03 21:24:37:004
20.016922;-6.517964;-0.188561;8.04225;-5.49141;1.156293;12.90931;0.985315;3.409739;215.5481;-65.5654;85.086;0.0;5.8533;15.5563;-27.7603;299.4454;31.1809;-86.7661;0.0;45.90978;12.846286;77.66219;;NaN;;926.0;;0 / 0;2237;2017-10-03 21:24:37:015
20.016922;-6.517964;-0.188561;8.04225;-5.49141;1.156293;12.90931;0.985315;3.409739;215.5481;-65.5654;85.086;0.0;5.8533;15.5563;-27.7603;299.4454;31.1809;-86.7661;0.0;45.90978;12.846286;77.66219;;NaN;;926.0;;0 / 0;2246;2017-10-03 21:24:37:024
20.016922;-6.517964;-0.188561;8.04225;-5.49141;1.156293;12.90931;0.985315;3.409739;215.5481;-65.5654;85.086;0.0;5.8533;15.5563;-27.7603;299.4454;31.1809;-86.7661;0.0;45.90978;12.846286;77.66219;;NaN;;926.0;;0 / 0;2256;2017-10-03 21:24:37:034
7.71663;-2.097218;1.674247;8.897178;-3.83787;1.510428;-1.749308;2.387261;-0.527223;-4.791;3.4901;-91.5538;0.0;5.8533;15.5563;-27.7603;299.4454;31.1809;-86.7661;0.0;45.90978;12.846286;77.66219;;NaN;;926.0;;0 / 0;2266;2017-10-03 21:24:37:044
7.71663;-2.097218;1.674247;8.897178;-3.83787;1.510428;-1.749308;2.387261;-0.527223;-4.791;3.4901;-91.5538;0.0;-6.1661;4.7012;-35.9222;269.8807;23.0388;-80.365;0.0;45.90978;12.846286;77.66219;;NaN;;926.0;;0 / 0;2285;2017-10-03 21:24:37:063
7.71663;-2.097218;1.674247;8.897178;-3.83787;1.510428;-1.749308;2.387261;-0.527223;-4.791;3.4901;-91.5538;0.0;-6.1661;4.7012;-35.9222;269.8807;23.0388;-80.365;0.0;45.90978;12.846286;77.66219;;NaN;;926.0;;0 / 0;2287;2017-10-03 21:24:37:065
-0.822158;-7.906987;-2.261941;8.897178;-3.83787;1.510428;-1.749308;2.387261;-0.527223;-4.791;3.4901;-91.5538;0.0;-6.1661;4.7012;-35.9222;269.8807;23.0388;-80.365;0.0;45.90978;12.846286;77.66219;;NaN;;926.0;;0 / 0;2296;2017-10-03 21:24:37:074
-0.822158;-7.906987;-2.261941;8.897178;-3.83787;1.510428;-1.749308;2.387261;-0.527223;-4.791;3.4901;-91.5538;0.0;-6.1661;4.7012;-35.9222;269.8807;23.0388;-80.365;0.0;45.90978;12.846286;77.66219;;NaN;;926.0;;0 / 0;2307;2017-10-03 21:24:37:085
-0.822158;-7.906987;-2.261941;9.155006;-3.34978;1.065478;-1.977109;1.867174;-0.061646;46.7469;-68.2311;-46.1646;0.0;-6.1661;4.7012;-35.9222;269.8807;23.0388;-80.365;0.0;45.90978;12.846286;77.66219;;NaN;;926.0;;0 / 0;2317;2017-10-03 21:24:37:095
-0.822158;-7.906987;-2.261941;9.155006;-3.34978;1.065478;-1.977109;1.867174;-0.061646;46.7469;-68.2311;-46.1646;0.0;-6.1661;4.7012;-35.9222;269.8807;23.0388;-80.365;0.0;45.90978;12.846286;77.66219;;NaN;;926.0;;0 / 0;2327;2017-10-03 21:24:37:105
5.853806;2.026805;-2.241601;9.155006;-3.34978;1.065478;-1.977109;1.867174;-0.061646;46.7469;-68.2311;-46.1646;0.0;-6.1661;4.7012;-35.9222;269.8807;23.0388;-80.365;0.0;69.82311;12.846286;77.66219;;NaN;;926.0;;0 / 0;2336;2017-10-03 21:24:37:114
5.853806;2.026805;-2.241601;9.155006;-3.34978;1.065478;-1.977109;1.867174;-0.061646;46.7469;-68.2311;-46.1646;0.0;-5.7541;-1.0193;-37.6465;263.1116;19.9733;-83.3617;0.0;69.82311;12.846286;77.66219;;NaN;;926.0;;0 / 0;2347;2017-10-03 21:24:37:125
5.853806;2.026805;-2.241601;9.155006;-3.34978;1.065478;-1.977109;1.867174;-0.061646;46.7469;-68.2311;-46.1646;0.0;-5.7541;-1.0193;-37.6465;263.1116;19.9733;-83.3617;0.0;69.82311;12.846286;77.66219;;NaN;;926.0;;0 / 0;2356;2017-10-03 21:24:37:134
12.901872;-4.860921;5.989707;8.945438;-3.935332;0.814053;-10.326782;1.055679;-0.030265;46.7469;-68.2311;-46.1646;0.0;-5.7541;-1.0193;-37.6465;263.1116;19.9733;-83.3617;0.0;69.82311;12.846286;77.66219;;NaN;;926.0;;0 / 0;2367;2017-10-03 21:24:37:145
12.901872;-4.860921;5.989707;8.945438;-3.935332;0.814053;-10.326782;1.055679;-0.030265;-11.7676;-24.3701;58.7663;0.0;-5.7541;-1.0193;-37.6465;263.1116;19.9733;-83.3617;0.0;69.82311;12.846286;77.66219;;NaN;;926.0;;0 / 0;2377;2017-10-03 21:24:37:155
12.901872;-4.860921;5.989707;8.945438;-3.935332;0.814053;-10.326782;1.055679;-0.030265;-11.7676;-24.3701;58.7663;0.0;-5.7541;-1.0193;-37.6465;263.1116;19.9733;-83.3617;0.0;69.82311;12.846286;77.66219;;NaN;;926.0;;0 / 0;2386;2017-10-03 21:24:37:164
12.901872;-4.860921;5.989707;8.945438;-3.935332;0.814053;-10.326782;1.055679;-0.030265;-11.7676;-24.3701;58.7663;0.0;-5.7541;-1.0193;-37.6465;263.1116;19.9733;-83.3617;0.0;69.82311;12.846286;77.66219;;NaN;;926.0;;0 / 0;2396;2017-10-03 21:24:37:174
4.486314;-3.361821;0.048331;8.945438;-3.935332;0.814053;-10.326782;1.055679;-0.030265;-11.7676;-24.3701;58.7663;0.0;-5.7541;-1.0193;-37.6465;263.1116;19.9733;-83.3617;0.0;69.82311;12.846286;77.66219;;NaN;;926.0;;0 / 0;2406;2017-10-03 21:24:37:184
4.486314;-3.361821;0.048331;8.945438;-3.935332;0.814053;-10.326782;1.055679;-0.030265;-11.7676;-24.3701;58.7663;0.0;-7.2235;-5.5664;-38.2507;255.4247;23.659;-84.8003;0.0;69.82311;12.846286;77.66219;;NaN;;926.0;;0 / 0;2417;2017-10-03 21:24:37:195
4.486314;-3.361821;0.048331;8.90773;-4.036364;0.728343;0.573955;3.028028;1.494719;-34.0097;2.8422;13.8553;0.0;-7.2235;-5.5664;-38.2507;255.4247;23.659;-84.8003;0.0;69.82311;12.846286;77.66219;;NaN;;926.0;;0 / 0;2427;2017-10-03 21:24:37:205
4.486314;-3.361821;0.048331;8.90773;-4.036364;0.728343;0.573955;3.028028;1.494719;-34.0097;2.8422;13.8553;0.0;-7.2235;-5.5664;-38.2507;255.4247;23.659;-84.8003;0.0;69.82311;12.846286;77.66219;;NaN;;926.0;;0 / 0;2436;2017-10-03 21:24:37:214
-0.056457;-8.32813;2.983115;8.90773;-4.036364;0.728343;0.573955;3.028028;1.494719;-34.0097;2.8422;13.8553;0.0;-7.2235;-5.5664;-38.2507;255.4247;23.659;-84.8003;0.0;69.82311;12.846286;77.66219;;NaN;;926.0;;0 / 0;2446;2017-10-03 21:24:37:224
-0.056457;-8.32813;2.983115;8.90773;-4.036364;0.728343;0.573955;3.028028;1.494719;-34.0097;2.8422;13.8553;0.0;-7.2235;-5.5664;-38.2507;255.4247;23.659;-84.8003;0.0;69.82311;12.846286;77.66219;;NaN;;926.0;;0 / 0;2456;2017-10-03 21:24:37:234
-0.056457;-8.32813;2.983115;8.90773;-4.036364;0.728343;0.573955;3.028028;1.494719;-34.0097;2.8422;13.8553;0.0;-7.2235;-5.5664;-38.2507;255.4247;23.659;-84.8003;0.0;69.82311;12.846286;77.66219;;NaN;;926.0;;0 / 0;2466;2017-10-03 21:24:37:244
-0.056457;-8.32813;2.983115;8.90773;-4.036364;0.728343;0.573955;3.028028;1.494719;-34.0097;2.8422;13.8553;0.0;-7.2235;-5.5664;-38.2507;255.4247;23.659;-84.8003;0.0;69.82311;12.846286;77.66219;;NaN;;926.0;;0 / 0;2476;2017-10-03 21:24:37:254
16.647827;-10.945882;0.648917;7.999565;-5.67218;-0.061066;-5.893052;1.954047;0.44976;-46.9366;-67.0884;186.9492;0.0;-8.0093;-4.8721;-38.5269;256.5406;24.305;-85.3256;0.0;69.82311;12.846286;77.66219;;NaN;;926.0;;0 / 0;2486;2017-10-03 21:24:37:264
16.647827;-10.945882;0.648917;7.999565;-5.67218;-0.061066;-5.893052;1.954047;0.44976;-46.9366;-67.0884;186.9492;0.0;-8.0093;-4.8721;-38.5269;256.5406;24.305;-85.3256;0.0;69.82311;12.846286;77.66219;;NaN;;926.0;;0 / 0;2496;2017-10-03 21:24:37:274
16.647827;-10.945882;0.648917;7.999565;-5.67218;-0.061066;-5.893052;1.954047;0.44976;-46.9366;-67.0884;186.9492;0.0;-8.0093;-4.8721;-38.5269;256.5406;24.305;-85.3256;0.0;69.82311;12.846286;77.66219;;NaN;;926.0;;0 / 0;2506;2017-10-03 21:24:37:284
16.647827;-10.945882;0.648917;7.999565;-5.67218;-0.061066;-5.893052;1.954047;0.44976;-46.9366;-67.0884;186.9492;0.0;-8.0093;-4.8721;-38.5269;256.5406;24.305;-85.3256;0.0;69.82311;12.846286;77.66219;;NaN;;926.0;;0 / 0;2516;2017-10-03 21:24:37:294
16.384628;-15.9744;0.157203;7.999565;-5.67218;-0.061066;-5.893052;1.954047;0.44976;-46.9366;-67.0884;186.9492;0.0;-8.0093;-4.8721;-38.5269;256.5406;24.305;-85.3256;0.0;69.82311;12.846286;77.66219;;NaN;;926.0;;0 / 0;2527;2017-10-03 21:24:37:305
16.384628;-15.9744;0.157203;6.883345;-6.935953;-0.826134;6.955754;-3.518401;0.781355;-68.3395;-48.2113;179.5284;0.0;-8.0093;-4.8721;-38.5269;256.5406;24.305;-85.3256;0.0;69.82311;12.846286;77.66219;;NaN;;926.0;;0 / 0;2536;2017-10-03 21:24:37:314
16.384628;-15.9744;0.157203;6.883345;-6.935953;-0.826134;6.955754;-3.518401;0.781355;-68.3395;-48.2113;179.5284;0.0;-8.9218;-3.9139;-38.1866;261.289;45.0133;-96.8439;0.0;69.82311;12.846286;77.66219;;NaN;;926.0;;0 / 0;2546;2017-10-03 21:24:37:324
10.643052;-13.479878;0.112937;6.883345;-6.935953;-0.826134;6.955754;-3.518401;0.781355;-68.3395;-48.2113;179.5284;0.0;-8.9218;-3.9139;-38.1866;261.289;45.0133;-96.8439;0.0;69.82311;12.846286;77.66219;;NaN;;926.0;;0 / 0;2556;2017-10-03 21:24:37:334
10.643052;-13.479878;0.112937;6.883345;-6.935953;-0.826134;6.955754;-3.518401;0.781355;-68.3395;-48.2113;179.5284;0.0;-8.9218;-3.9139;-38.1866;261.289;45.0133;-96.8439;0.0;69.82311;12.846286;77.66219;;NaN;;926.0;;0 / 0;2566;2017-10-03 21:24:37:344
10.643052;-13.479878;0.112937;6.883345;-6.935953;-0.826134;6.955754;-3.518401;0.781355;-68.3395;-48.2113;179.5284;0.0;-8.9218;-3.9139;-38.1866;261.289;45.0133;-96.8439;0.0;69.82311;12.846286;77.66219;;NaN;;926.0;;0 / 0;2577;2017-10-03 21:24:37:355
10.643052;-13.479878;0.112937;6.883345;-6.935953;-0.826134;6.955754;-3.518401;0.781355;-68.3395;-48.2113;179.5284;0.0;-8.9218;-3.9139;-38.1866;261.289;45.0133;-96.8439;0.0;69.82311;12.846286;77.66219;;NaN;;926.0;;0 / 0;2586;2017-10-03 21:24:37:364
4.113038;-6.72614;-3.181985;6.763372;-7.077903;-0.574859;1.924304;-3.571011;-0.451721;26.8084;9.9238;16.3925;0.0;-8.9218;-3.9139;-38.1866;261.289;45.0133;-96.8439;0.0;69.82311;12.846286;77.66219;;NaN;;926.0;;0 / 0;2596;2017-10-03 21:24:37:374
4.113038;-6.72614;-3.181985;6.763372;-7.077903;-0.574859;1.924304;-3.571011;-0.451721;26.8084;9.9238;16.3925;0.0;-8.9218;-3.9139;-38.1866;261.289;45.0133;-96.8439;0.0;69.82311;12.846286;77.66219;;NaN;;926.0;;0 / 0;2606;2017-10-03 21:24:37:384
4.113038;-6.72614;-3.181985;6.763372;-7.077903;-0.574859;1.924304;-3.571011;-0.451721;26.8084;9.9238;16.3925;0.0;-9.2682;-3.4485;-38.4018;260.8432;46.1988;-94.8582;0.0;69.82311;12.846286;77.66219;;NaN;;926.0;;0 / 0;2616;2017-10-03 21:24:37:394
4.113038;-6.72614;-3.181985;6.763372;-7.077903;-0.574859;1.924304;-3.571011;-0.451721;26.8084;9.9238;16.3925;0.0;-9.2682;-3.4485;-38.4018;260.8432;46.1988;-94.8582;0.0;69.82311;12.846286;77.66219;;NaN;;926.0;;0 / 0;2627;2017-10-03 21:24:37:405
4.397782;-10.472096;1.046134;6.763372;-7.077903;-0.574859;1.924304;-3.571011;-0.451721;26.8084;9.9238;16.3925;0.0;-9.2682;-3.4485;-38.4018;260.8432;46.1988;-94.8582;0.0;69.82311;12.846286;77.66219;;NaN;;926.0;;0 / 0;2637;2017-10-03 21:24:37:415
4.397782;-10.472096;1.046134;6.763372;-7.077903;-0.574859;1.924304;-3.571011;-0.451721;26.8084;9.9238;16.3925;0.0;-9.2682;-3.4485;-38.4018;260.8432;46.1988;-94.8582;0.0;74.55976;12.846286;77.66219;;NaN;;926.0;;0 / 0;2646;2017-10-03 21:24:37:424
4.397782;-10.472096;1.046134;5.619096;-8.008437;-0.679042;-3.023014;0.842791;0.08495;21.9091;-43.1537;145.3394;0.0;-9.2682;-3.4485;-38.4018;260.8432;46.1988;-94.8582;0.0;74.55976;12.846286;77.66219;;NaN;;926.0;;0 / 0;2656;2017-10-03 21:24:37:434
4.397782;-10.472096;1.046134;5.619096;-8.008437;-0.679042;-3.023014;0.842791;0.08495;21.9091;-43.1537;145.3394;0.0;-9.2682;-3.4485;-38.4018;260.8432;46.1988;-94.8582;0.0;74.55976;12.846286;77.66219;;NaN;;926.0;;0 / 0;2667;2017-10-03 21:24:37:445
3.738557;-12.939092;-1.242608;5.619096;-8.008437;-0.679042;-3.023014;0.842791;0.08495;21.9091;-43.1537;145.3394;0.0;-9.2682;-3.4485;-38.4018;260.8432;46.1988;-94.8582;0.0;74.55976;12.846286;77.66219;;NaN;;926.0;;0 / 0;2676;2017-10-03 21:24:37:454
3.738557;-12.939092;-1.242608;5.619096;-8.008437;-0.679042;-3.023014;0.842791;0.08495;21.9091;-43.1537;145.3394;0.0;-10.0937;-2.8625;-38.4018;261.0709;54.7492;-96.8905;0.0;74.55976;12.846286;77.66219;;NaN;;926.0;;0 / 0;2687;2017-10-03 21:24:37:465
3.738557;-12.939092;-1.242608;5.619096;-8.008437;-0.679042;-3.023014;0.842791;0.08495;21.9091;-43.1537;145.3394;0.0;-10.0937;-2.8625;-38.4018;261.0709;54.7492;-96.8905;0.0;74.55976;12.846286;77.66219;;NaN;;926.0;;0 / 0;2696;2017-10-03 21:24:37:474
8.165284;-8.670308;1.494788;2.538527;-9.43396;-0.852449;0.121385;2.27659;0.259956;-8.3483;-21.3487;345.8904;0.0;-10.0937;-2.8625;-38.4018;261.0709;54.7492;-96.8905;0.0;74.55976;12.846286;77.66219;;NaN;;926.0;;0 / 0;2707;2017-10-03 21:24:37:485
8.165284;-8.670308;1.494788;2.538527;-9.43396;-0.852449;0.121385;2.27659;0.259956;-8.3483;-21.3487;345.8904;0.0;-10.0937;-2.8625;-38.4018;261.0709;54.7492;-96.8905;0.0;74.55976;12.846286;77.66219;;NaN;;926.0;;0 / 0;2716;2017-10-03 21:24:37:494
8.165284;-8.670308;1.494788;2.538527;-9.43396;-0.852449;0.121385;2.27659;0.259956;-8.3483;-21.3487;345.8904;0.0;-10.0937;-2.8625;-38.4018;261.0709;54.7492;-96.8905;0.0;74.55976;12.846286;77.66219;;NaN;;926.0;;0 / 0;2727;2017-10-03 21:24:37:505
8.165284;-8.670308;1.494788;2.538527;-9.43396;-0.852449;0.121385;2.27659;0.259956;-8.3483;-21.3487;345.8904;0.0;-10.0937;-2.8625;-38.4018;261.0709;54.7492;-96.8905;0.0;74.55976;12.846286;77.66219;;NaN;;926.0;;0 / 0;2736;2017-10-03 21:24:37:514
8.627092;-8.035008;-0.291451;2.538527;-9.43396;-0.852449;0.121385;2.27659;0.259956;-8.3483;-21.3487;345.8904;0.0;-10.0937;-2.8625;-38.4018;261.0709;54.7492;-96.8905;0.0;74.55976;12.846286;77.66219;;NaN;;926.0;;0 / 0;2746;2017-10-03 21:24:37:524
8.627092;-8.035008;-0.291451;2.538527;-9.43396;-0.852449;0.121385;2.27659;0.259956;-8.3483;-21.3487;345.8904;0.0;-10.1532;-1.6724;-38.2507;272.8786;74.1534;-108.5623;0.0;74.55976;12.846286;77.66219;;NaN;;926.0;;0 / 0;2756;2017-10-03 21:24:37:534
8.627092;-8.035008;-0.291451;-0.32975;-9.76578;-0.831372;4.418746;1.550669;0.751743;-0.0017;20.004;304.1828;0.0;-10.1532;-1.6724;-38.2507;272.8786;74.1534;-108.5623;0.0;74.55976;12.846286;77.66219;;NaN;;926.0;;0 / 0;2767;2017-10-03 21:24:37:545
8.627092;-8.035008;-0.291451;-0.32975;-9.76578;-0.831372;4.418746;1.550669;0.751743;-0.0017;20.004;304.1828;0.0;-10.1532;-1.6724;-38.2507;272.8786;74.1534;-108.5623;0.0;74.55976;12.846286;77.66219;;NaN;;926.0;;0 / 0;2776;2017-10-03 21:24:37:554
3.496888;-9.413274;0.047126;-0.32975;-9.76578;-0.831372;4.418746;1.550669;0.751743;-0.0017;20.004;304.1828;0.0;-10.1532;-1.6724;-38.2507;272.8786;74.1534;-108.5623;0.0;74.55976;12.846286;77.66219;;NaN;;926.0;;0 / 0;2787;2017-10-03 21:24:37:565
3.496888;-9.413274;0.047126;-0.32975;-9.76578;-0.831372;4.418746;1.550669;0.751743;-0.0017;20.004;304.1828;0.0;-10.1532;-1.6724;-38.2507;272.8786;74.1534;-108.5623;0.0;74.55976;12.846286;77.66219;;NaN;;926.0;;0 / 0;2796;2017-10-03 21:24:37:574
3.496888;-9.413274;0.047126;-0.32975;-9.76578;-0.831372;4.418746;1.550669;0.751743;-0.0017;20.004;304.1828;0.0;-10.1532;-1.6724;-38.2507;272.8786;74.1534;-108.5623;0.0;74.55976;12.846286;77.66219;;NaN;;926.0;;0 / 0;2807;2017-10-03 21:24:37:585
3.496888;-9.413274;0.047126;-0.32975;-9.76578;-0.831372;4.418746;1.550669;0.751743;-0.0017;20.004;304.1828;0.0;-10.527;-0.3326;-38.4018;5.5134;84.7673;158.3651;0.0;74.55976;12.846286;77.66219;;NaN;;926.0;;0 / 0;2816;2017-10-03 21:24:37:594
-1.160751;-4.845372;5.237159;-0.990964;-9.69172;-1.122013;6.156672;3.738844;0.997685;-29.2677;19.3396;80.2566;0.0;-10.527;-0.3326;-38.4018;5.5134;84.7673;158.3651;0.0;74.55976;12.846286;77.66219;;NaN;;926.0;;0 / 0;2827;2017-10-03 21:24:37:605
-1.160751;-4.845372;5.237159;-0.990964;-9.69172;-1.122013;6.156672;3.738844;0.997685;-29.2677;19.3396;80.2566;0.0;-10.527;-0.3326;-38.4018;5.5134;84.7673;158.3651;0.0;74.55976;12.846286;77.66219;;NaN;;926.0;;0 / 0;2837;2017-10-03 21:24:37:615
-1.160751;-4.845372;5.237159;-0.990964;-9.69172;-1.122013;6.156672;3.738844;0.997685;-29.2677;19.3396;80.2566;0.0;-10.527;-0.3326;-38.4018;5.5134;84.7673;158.3651;0.0;74.55976;12.846286;77.66219;;NaN;;926.0;;0 / 0;2846;2017-10-03 21:24:37:624
-1.160751;-4.845372;5.237159;-0.990964;-9.69172;-1.122013;6.156672;3.738844;0.997685;-29.2677;19.3396;80.2566;0.0;-10.527;-0.3326;-38.4018;5.5134;84.7673;158.3651;0.0;74.55976;12.846286;77.66219;;NaN;;926.0;;0 / 0;2857;2017-10-03 21:24:37:635
-1.181091;-5.716359;1.70774;-0.990964;-9.69172;-1.122013;6.156672;3.738844;0.997685;-29.2677;19.3396;80.2566;0.0;-10.527;-0.3326;-38.4018;5.5134;84.7673;158.3651;0.0;74.55976;12.846286;77.66219;;NaN;;926.0;;0 / 0;2866;2017-10-03 21:24:37:644
-1.181091;-5.716359;1.70774;-0.990964;-9.69172;-1.122013;6.156672;3.738844;0.997685;-29.2677;19.3396;80.2566;0.0;-10.527;-0.3326;-38.4018;5.5134;84.7673;158.3651;0.0;74.55976;12.846286;77.66219;;NaN;;926.0;;0 / 0;2877;2017-10-03 21:24:37:655
-1.181091;-5.716359;1.70774;-2.418645;-9.494332;-0.422143;1.126015;7.567982;0.91437;48.8416;-125.2348;137.2079;0.0;-12.2925;2.4292;-37.9303;62.681;75.5011;99.9005;0.0;74.55976;12.846286;77.66219;;NaN;;926.0;;0 / 0;2886;2017-10-03 21:24:37:664
-4.127853;-22.464924;1.33567;-2.418645;-9.494332;-0.422143;1.126015;7.567982;0.91437;48.8416;-125.2348;137.2079;0.0;-12.2925;2.4292;-37.9303;62.681;75.5011;99.9005;0.0;74.55976;12.846286;77.66219;;NaN;;926.0;;0 / 0;2897;2017-10-03 21:24:37:675
-4.127853;-22.464924;1.33567;-2.418645;-9.494332;-0.422143;1.126015;7.567982;0.91437;48.8416;-125.2348;137.2079;0.0;-12.2925;2.4292;-37.9303;62.681;75.5011;99.9005;0.0;74.55976;12.846286;77.66219;;NaN;;926.0;;0 / 0;2906;2017-10-03 21:24:37:684
-4.127853;-22.464924;1.33567;-2.418645;-9.494332;-0.422143;1.126015;7.567982;0.91437;48.8416;-125.2348;137.2079;0.0;-12.2925;2.4292;-37.9303;62.681;75.5011;99.9005;0.0;74.55976;12.846286;77.66219;;NaN;;926.0;;0 / 0;2916;2017-10-03 21:24:37:694
-4.127853;-22.464924;1.33567;-2.418645;-9.494332;-0.422143;1.126015;7.567982;0.91437;48.8416;-125.2348;137.2079;0.0;-12.2925;2.4292;-37.9303;62.681;75.5011;99.9005;0.0;74.55976;12.846286;77.66219;;NaN;;926.0;;0 / 0;2926;2017-10-03 21:24:37:704
-6.168929;-10.239994;7.534278;-2.69969;-9.410314;0.572755;-2.607127;-8.97974;2.149315;28.2029;-261.5081;31.9675;0.0;-12.2925;2.4292;-37.9303;62.681;75.5011;99.9005;0.0;74.55976;12.846286;77.66219;;NaN;;926.0;;0 / 0;2936;2017-10-03 21:24:37:714
-6.168929;-10.239994;7.534278;-2.69969;-9.410314;0.572755;-2.607127;-8.97974;2.149315;28.2029;-261.5081;31.9675;0.0;-12.2925;2.4292;-37.9303;62.681;75.5011;99.9005;0.0;74.55976;12.846286;77.66219;;NaN;;926.0;;0 / 0;2947;2017-10-03 21:24:37:725
-6.168929;-10.239994;7.534278;-2.69969;-9.410314;0.572755;-2.607127;-8.97974;2.149315;28.2029;-261.5081;31.9675;0.0;-14.502;4.9118;-37.1078;78.3297;73.6551;78.022;0.0;74.55976;12.846286;77.66219;;NaN;;926.0;;0 / 0;2957;2017-10-03 21:24:37:735
-6.168929;-10.239994;7.534278;-2.69969;-9.410314;0.572755;-2.607127;-8.97974;2.149315;28.2029;-261.5081;31.9675;0.0;-14.502;4.9118;-37.1078;78.3297;73.6551;78.022;0.0;74.20981;12.846286;77.66219;;NaN;;926.0;;0 / 0;2966;2017-10-03 21:24:37:744
-4.755965;-17.92693;-5.01249;-2.69969;-9.410314;0.572755;-2.607127;-8.97974;2.149315;28.2029;-261.5081;31.9675;0.0;-14.502;4.9118;-37.1078;78.3297;73.6551;78.022;0.0;74.20981;12.846286;77.66219;;NaN;;926.0;;0 / 0;2977;2017-10-03 21:24:37:755
-4.755965;-17.92693;-5.01249;-2.69969;-9.410314;0.572755;-2.607127;-8.97974;2.149315;28.2029;-261.5081;31.9675;0.0;-14.502;4.9118;-37.1078;78.3297;73.6551;78.022;0.0;74.20981;12.846286;77.66219;;NaN;;926.0;;0 / 0;2986;2017-10-03 21:24:37:764
-4.755965;-17.92693;-5.01249;-2.964388;-9.215168;1.569543;-1.510787;-3.420454;-0.795705;72.5945;-124.9962;40.9977;0.0;-14.502;4.9118;-37.1078;78.3297;73.6551;78.022;0.0;74.20981;12.846286;77.66219;;NaN;;926.0;;0 / 0;2997;2017-10-03 21:24:37:775
-4.755965;-17.92693;-5.01249;-2.964388;-9.215168;1.569543;-1.510787;-3.420454;-0.795705;72.5945;-124.9962;40.9977;0.0;-14.502;4.9118;-37.1078;78.3297;73.6551;78.022;0.0;74.20981;12.846286;77.66219;;NaN;;926.0;;0 / 0;3006;2017-10-03 21:24:37:784
-2.553375;-5.72115;2.593085;-2.964388;-9.215168;1.569543;-1.510787;-3.420454;-0.795705;72.5945;-124.9962;40.9977;0.0;-14.502;4.9118;-37.1078;78.3297;73.6551;78.022;0.0;74.20981;12.846286;77.66219;;NaN;;926.0;;0 / 0;3016;2017-10-03 21:24:37:794
-2.553375;-5.72115;2.593085;-2.964388;-9.215168;1.569543;-1.510787;-3.420454;-0.795705;72.5945;-124.9962;40.9977;0.0;-17.5278;5.6702;-35.7605;88.3326;69.9988;62.1003;0.0;74.20981;12.846286;77.66219;;NaN;;926.0;;0 / 0;3028;2017-10-03 21:24:37:806
-2.553375;-5.72115;2.593085;-2.964388;-9.215168;1.569543;-1.510787;-3.420454;-0.795705;72.5945;-124.9962;40.9977;0.0;-17.5278;5.6702;-35.7605;88.3326;69.9988;62.1003;0.0;74.20981;12.846286;77.66219;;NaN;;926.0;;0 / 0;3036;2017-10-03 21:24:37:814
-2.553375;-5.72115;2.593085;-2.964388;-9.215168;1.569543;-1.510787;-3.420454;-0.795705;72.5945;-124.9962;40.9977;0.0;-17.5278;5.6702;-35.7605;88.3326;69.9988;62.1003;0.0;74.20981;12.846286;77.66219;;NaN;;926.0;;0 / 0;3046;2017-10-03 21:24:37:824
-1.414382;-14.612874;2.17913;-2.876616;-9.247764;1.540889;-0.593915;1.526547;0.003802;1.8123;17.0464;-14.3607;0.0;-17.5278;5.6702;-35.7605;88.3326;69.9988;62.1003;0.0;74.20981;12.846286;77.66219;;NaN;;926.0;;0 / 0;3056;2017-10-03 21:24:37:834
-1.414382;-14.612874;2.17913;-2.876616;-9.247764;1.540889;-0.593915;1.526547;0.003802;1.8123;17.0464;-14.3607;0.0;-17.5278;5.6702;-35.7605;88.3326;69.9988;62.1003;0.0;74.20981;12.846286;77.66219;;NaN;;926.0;;0 / 0;3066;2017-10-03 21:24:37:844
-1.414382;-14.612874;2.17913;-2.876616;-9.247764;1.540889;-0.593915;1.526547;0.003802;1.8123;17.0464;-14.3607;0.0;-17.5278;5.6702;-35.7605;88.3326;69.9988;62.1003;0.0;74.20981;12.846286;77.66219;;NaN;;926.0;;0 / 0;3076;2017-10-03 21:24:37:854
-0.038513;-11.383762;2.645728;-2.876616;-9.247764;1.540889;-0.593915;1.526547;0.003802;1.8123;17.0464;-14.3607;0.0;-21.4096;5.159;-34.3262;84.3003;70.5633;61.8238;0.0;74.20981;12.846286;77.66219;;NaN;;926.0;;0 / 0;3086;2017-10-03 21:24:37:864
-0.038513;-11.383762;2.645728;-2.876616;-9.247764;1.540889;-0.593915;1.526547;0.003802;1.8123;17.0464;-14.3607;0.0;-21.4096;5.159;-34.3262;84.3003;70.5633;61.8238;0.0;74.20981;12.846286;77.66219;;NaN;;926.0;;0 / 0;3097;2017-10-03 21:24:37:875
-0.038513;-11.383762;2.645728;-3.115694;-9.253302;0.916099;-0.357937;1.512136;0.640104;-64.5417;15.2734;22.5525;0.0;-21.4096;5.159;-34.3262;84.3003;70.5633;61.8238;0.0;74.20981;12.846286;77.66219;;NaN;;926.0;;0 / 0;3107;2017-10-03 21:24:37:885
-0.038513;-11.383762;2.645728;-3.115694;-9.253302;0.916099;-0.357937;1.512136;0.640104;-64.5417;15.2734;22.5525;0.0;-21.4096;5.159;-34.3262;84.3003;70.5633;61.8238;0.0;74.20981;12.846286;77.66219;;NaN;;926.0;;0 / 0;3116;2017-10-03 21:24:37:894
2.213135;-9.931324;-0.478097;-3.115694;-9.253302;0.916099;-0.357937;1.512136;0.640104;-64.5417;15.2734;22.5525;0.0;-21.4096;5.159;-34.3262;84.3003;70.5633;61.8238;0.0;74.20981;12.846286;77.66219;;NaN;;926.0;;0 / 0;3126;2017-10-03 21:24:37:904
2.213135;-9.931324;-0.478097;-3.115694;-9.253302;0.916099;-0.357937;1.512136;0.640104;-64.5417;15.2734;22.5525;0.0;-21.4096;5.159;-34.3262;84.3003;70.5633;61.8238;0.0;74.20981;12.846286;77.66219;;NaN;;926.0;;0 / 0;3136;2017-10-03 21:24:37:914
2.213135;-9.931324;-0.478097;-3.115694;-9.253302;0.916099;-0.357937;1.512136;0.640104;-64.5417;15.2734;22.5525;0.0;-21.4096;5.159;-34.3262;84.3003;70.5633;61.8238;0.0;74.20981;12.846286;77.66219;;NaN;;926.0;;0 / 0;3146;2017-10-03 21:24:37:924
2.213135;-9.931324;-0.478097;-3.115694;-9.253302;0.916099;-0.357937;1.512136;0.640104;-64.5417;15.2734;22.5525;0.0;-26.2756;4.8233;-33.3069;67.1785;70.6607;73.6152;0.0;74.20981;12.846286;77.66219;;NaN;;926.0;;0 / 0;3157;2017-10-03 21:24:37:935
-0.069625;-13.125736;1.216025;-3.177555;-9.277314;0.070277;2.234435;0.661823;1.075173;-46.7793;136.7472;3.4953;0.0;-26.2756;4.8233;-33.3069;67.1785;70.6607;73.6152;0.0;74.20981;12.846286;77.66219;;NaN;;926.0;;0 / 0;3166;2017-10-03 21:24:37:944
-0.069625;-13.125736;1.216025;-3.177555;-9.277314;0.070277;2.234435;0.661823;1.075173;-46.7793;136.7472;3.4953;0.0;-26.2756;4.8233;-33.3069;67.1785;70.6607;73.6152;0.0;74.20981;12.846286;77.66219;;NaN;;926.0;;0 / 0;3177;2017-10-03 21:24:37:955
-0.069625;-13.125736;1.216025;-3.177555;-9.277314;0.070277;2.234435;0.661823;1.075173;-46.7793;136.7472;3.4953;0.0;-26.2756;4.8233;-33.3069;67.1785;70.6607;73.6152;0.0;74.20981;12.846286;77.66219;;NaN;;926.0;;0 / 0;3187;2017-10-03 21:24:37:965
-0.069625;-13.125736;1.216025;-3.177555;-9.277314;0.070277;2.234435;0.661823;1.075173;-46.7793;136.7472;3.4953;0.0;-26.2756;4.8233;-33.3069;67.1785;70.6607;73.6152;0.0;74.20981;12.846286;77.66219;;NaN;;926.0;;0 / 0;3197;2017-10-03 21:24:37:975
-2.018569;-10.901616;1.117911;-3.177555;-9.277314;0.070277;2.234435;0.661823;1.075173;-46.7793;136.7472;3.4953;0.0;-26.2756;4.8233;-33.3069;67.1785;70.6607;73.6152;0.0;74.20981;12.846286;77.66219;;NaN;;926.0;;0 / 0;3206;2017-10-03 21:24:37:984
-2.018569;-10.901616;1.117911;-3.177555;-9.277314;0.070277;2.234435;0.661823;1.075173;-46.7793;136.7472;3.4953;0.0;-26.2756;4.8233;-33.3069;67.1785;70.6607;73.6152;0.0;74.20981;12.846286;77.66219;;NaN;;926.0;;0 / 0;3216;2017-10-03 21:24:37:994
-2.018569;-10.901616;1.117911;-2.942782;-9.349128;0.322829;1.331807;-0.250248;0.6473;17.195;-27.9633;-22.452;0.0;-24.3362;6.543;-34.3765;59.649;72.4294;83.7396;0.0;74.20981;12.846286;77.66219;;NaN;;926.0;;0 / 0;3226;2017-10-03 21:24:38:004
-0.397445;-11.818058;1.639548;-2.942782;-9.349128;0.322829;1.331807;-0.250248;0.6473;17.195;-27.9633;-22.452;0.0;-24.3362;6.543;-34.3765;59.649;72.4294;83.7396;0.0;74.20981;12.846286;77.66219;;NaN;;926.0;;0 / 0;3237;2017-10-03 21:24:38:015
-0.397445;-11.818058;1.639548;-2.942782;-9.349128;0.322829;1.331807;-0.250248;0.6473;17.195;-27.9633;-22.452;0.0;-24.3362;6.543;-34.3765;59.649;72.4294;83.7396;0.0;74.20981;12.846286;77.66219;;NaN;;926.0;;0 / 0;3247;2017-10-03 21:24:38:025
-0.397445;-11.818058;1.639548;-2.942782;-9.349128;0.322829;1.331807;-0.250248;0.6473;17.195;-27.9633;-22.452;0.0;-24.3362;6.543;-34.3765;59.649;72.4294;83.7396;0.0;74.20981;12.846286;77.66219;;NaN;;926.0;;0 / 0;3256;2017-10-03 21:24:38:034
-0.397445;-11.818058;1.639548;-2.942782;-9.349128;0.322829;1.331807;-0.250248;0.6473;17.195;-27.9633;-22.452;0.0;-24.3362;6.543;-34.3765;59.649;72.4294;83.7396;0.0;74.20981;12.846286;77.66219;;NaN;;926.0;;0 / 0;3266;2017-10-03 21:24:38:044
-0.434524;-11.764226;0.275641;-2.86509;-9.3672;0.466051;0.54697;0.44246;0.614538;5.2779;-29.1471;-6.4451;0.0;-24.3362;6.543;-34.3765;59.649;72.4294;83.7396;0.0;74.20981;12.846286;77.66219;;NaN;;926.0;;0 / 0;3276;2017-10-03 21:24:38:054
-0.434524;-11.764226;0.275641;-2.86509;-9.3672;0.466051;0.54697;0.44246;0.614538;5.2779;-29.1471;-6.4451;0.0;-23.0438;7.2876;-33.4961;62.7277;72.7826;80.7609;0.0;74.20981;12.846286;77.66219;;NaN;;926.0;;0 / 0;3287;2017-10-03 21:24:38:065
-0.434524;-11.764226;0.275641;-2.86509;-9.3672;0.466051;0.54697;0.44246;0.614538;5.2779;-29.1471;-6.4451;0.0;-23.0438;7.2876;-33.4961;62.7277;72.7826;80.7609;0.0;68.58078;12.846286;77.66219;;NaN;;926.0;;0 / 0;3297;2017-10-03 21:24:38:075
-0.434524;-11.764226;0.275641;-2.86509;-9.3672;0.466051;0.54697;0.44246;0.614538;5.2779;-29.1471;-6.4451;0.0;-23.0438;7.2876;-33.4961;62.7277;72.7826;80.7609;0.0;68.58078;12.846286;77.66219;;NaN;;926.0;;0 / 0;3307;2017-10-03 21:24:38:085
-1.674011;-11.682866;0.150016;-2.86509;-9.3672;0.466051;0.54697;0.44246;0.614538;5.2779;-29.1471;-6.4451;0.0;-23.0438;7.2876;-33.4961;62.7277;72.7826;80.7609;0.0;68.58078;12.846286;77.66219;;NaN;;926.0;;0 / 0;3316;2017-10-03 21:24:38:094
-1.674011;-11.682866;0.150016;-2.86509;-9.3672;0.466051;0.54697;0.44246;0.614538;5.2779;-29.1471;-6.4451;0.0;-23.0438;7.2876;-33.4961;62.7277;72.7826;80.7609;0.0;68.58078;12.846286;77.66219;;NaN;;926.0;;0 / 0;3326;2017-10-03 21:24:38:104
-1.674011;-11.682866;0.150016;-2.831184;-9.375004;0.513892;0.447256;0.108051;-0.697196;2.705;-12.0972;-2.3439;0.0;-23.0438;7.2876;-33.4961;62.7277;72.7826;80.7609;0.0;68.58078;12.846286;77.66219;;NaN;;926.0;;0 / 0;3336;2017-10-03 21:24:38:114
-1.674011;-11.682866;0.150016;-2.831184;-9.375004;0.513892;0.447256;0.108051;-0.697196;2.705;-12.0972;-2.3439;0.0;-23.0438;7.2876;-33.4961;62.7277;72.7826;80.7609;0.0;68.58078;12.846286;77.66219;;NaN;;926.0;;0 / 0;3347;2017-10-03 21:24:38:125
-0.66304;-11.55605;2.122901;-2.831184;-9.375004;0.513892;0.447256;0.108051;-0.697196;2.705;-12.0972;-2.3439;0.0;-23.1735;7.6904;-33.873;64.1767;72.9373;79.7122;0.0;68.58078;12.846286;77.66219;;NaN;;926.0;;0 / 0;3356;2017-10-03 21:24:38:134
-0.66304;-11.55605;2.122901;-2.831184;-9.375004;0.513892;0.447256;0.108051;-0.697196;2.705;-12.0972;-2.3439;0.0;-23.1735;7.6904;-33.873;64.1767;72.9373;79.7122;0.0;68.58078;12.846286;77.66219;;NaN;;926.0;;0 / 0;3366;2017-10-03 21:24:38:144
-0.66304;-11.55605;2.122901;-2.831184;-9.375004;0.513892;0.447256;0.108051;-0.697196;2.705;-12.0972;-2.3439;0.0;-23.1735;7.6904;-33.873;64.1767;72.9373;79.7122;0.0;68.58078;12.846286;77.66219;;NaN;;926.0;;0 / 0;3376;2017-10-03 21:24:38:154
-0.66304;-11.55605;2.122901;-2.831184;-9.375004;0.513892;0.447256;0.108051;-0.697196;2.705;-12.0972;-2.3439;0.0;-23.1735;7.6904;-33.873;64.1767;72.9373;79.7122;0.0;68.58078;12.846286;77.66219;;NaN;;926.0;;0 / 0;3386;2017-10-03 21:24:38:164
-0.407012;-11.687656;1.346427;-2.811511;-9.382048;0.492919;0.763464;0.23504;0.922377;-3.9386;0.0778;-0.9442;0.0;-23.1735;7.6904;-33.873;64.1767;72.9373;79.7122;0.0;68.58078;12.846286;77.66219;;NaN;;926.0;;0 / 0;3397;2017-10-03 21:24:38:175
-0.407012;-11.687656;1.346427;-2.811511;-9.382048;0.492919;0.763464;0.23504;0.922377;-3.9386;0.0778;-0.9442;0.0;-23.1735;7.6904;-33.873;64.1767;72.9373;79.7122;0.0;68.58078;12.846286;77.66219;;NaN;;926.0;;0 / 0;3406;2017-10-03 21:24:38:184
-0.407012;-11.687656;1.346427;-2.811511;-9.382048;0.492919;0.763464;0.23504;0.922377;-3.9386;0.0778;-0.9442;0.0;-23.1735;7.6904;-33.873;64.1767;72.9373;79.7122;0.0;68.58078;12.846286;77.66219;;NaN;;926.0;;0 / 0;3416;2017-10-03 21:24:38:194
-0.407012;-11.687656;1.346427;-2.811511;-9.382048;0.492919;0.763464;0.23504;0.922377;-3.9386;0.0778;-0.9442;0.0;-23.6862;7.2739;-33.4961;62.3485;73.0781;80.0559;0.0;68.58078;12.846286;77.66219;;NaN;;926.0;;0 / 0;3426;2017-10-03 21:24:38:204
-0.941802;-11.710378;0.550818;-2.811511;-9.382048;0.492919;0.763464;0.23504;0.922377;-3.9386;0.0778;-0.9442;0.0;-23.6862;7.2739;-33.4961;62.3485;73.0781;80.0559;0.0;68.58078;12.846286;77.66219;;NaN;;926.0;;0 / 0;3436;2017-10-03 21:24:38:214
-0.941802;-11.710378;0.550818;-2.760219;-9.394006;0.551571;0.709911;0.24088;0.863594;2.7522;-6.5841;-4.0706;0.0;-23.6862;7.2739;-33.4961;62.3485;73.0781;80.0559;0.0;68.58078;12.846286;77.66219;;NaN;;926.0;;0 / 0;3447;2017-10-03 21:24:38:225
-0.941802;-11.710378;0.550818;-2.760219;-9.394006;0.551571;0.709911;0.24088;0.863594;2.7522;-6.5841;-4.0706;0.0;-23.6862;7.2739;-33.4961;62.3485;73.0781;80.0559;0.0;68.58078;12.846286;77.66219;;NaN;;926.0;;0 / 0;3457;2017-10-03 21:24:38:235
-0.923858;-11.623052;1.414634;-2.760219;-9.394006;0.551571;0.709911;0.24088;0.863594;2.7522;-6.5841;-4.0706;0.0;-23.6862;7.2739;-33.4961;62.3485;73.0781;80.0559;0.0;68.58078;12.846286;77.66219;;NaN;;926.0;;0 / 0;3466;2017-10-03 21:24:38:244
-0.923858;-11.623052;1.414634;-2.760219;-9.394006;0.551571;0.709911;0.24088;0.863594;2.7522;-6.5841;-4.0706;0.0;-23.6862;7.2739;-33.4961;62.3485;73.0781;80.0559;0.0;68.58078;12.846286;77.66219;;NaN;;926.0;;0 / 0;3477;2017-10-03 21:24:38:255
-0.923858;-11.623052;1.414634;-2.760219;-9.394006;0.551571;0.709911;0.24088;0.863594;2.7522;-6.5841;-4.0706;0.0;-23.9487;7.518;-33.2703;63.2933;73.3199;78.6995;0.0;68.58078;12.846286;77.66219;;NaN;;926.0;;0 / 0;3486;2017-10-03 21:24:38:264
-0.923858;-11.623052;1.414634;-2.760219;-9.394006;0.551571;0.709911;0.24088;0.863594;2.7522;-6.5841;-4.0706;0.0;-23.9487;7.518;-33.2703;63.2933;73.3199;78.6995;0.0;68.58078;12.846286;77.66219;;NaN;;926.0;;0 / 0;3496;2017-10-03 21:24:38:274
-0.752776;-11.57639;1.731681;-2.723242;-9.406646;0.51897;0.491919;0.119566;0.028174;-3.5478;0.1067;-3.2138;0.0;-23.9487;7.518;-33.2703;63.2933;73.3199;78.6995;0.0;68.58078;12.846286;77.66219;;NaN;;926.0;;0 / 0;3506;2017-10-03 21:24:38:284
-0.752776;-11.57639;1.731681;-2.723242;-9.406646;0.51897;0.491919;0.119566;0.028174;-3.5478;0.1067;-3.2138;0.0;-23.9487;7.518;-33.2703;63.2933;73.3199;78.6995;0.0;68.58078;12.846286;77.66219;;NaN;;926.0;;0 / 0;3517;2017-10-03 21:24:38:295
-0.752776;-11.57639;1.731681;-2.723242;-9.406646;0.51897;0.491919;0.119566;0.028174;-3.5478;0.1067;-3.2138;0.0;-23.9487;7.518;-33.2703;63.2933;73.3199;78.6995;0.0;68.58078;12.846286;77.66219;;NaN;;926.0;;0 / 0;3527;2017-10-03 21:24:38:305
-0.752776;-11.57639;1.731681;-2.723242;-9.406646;0.51897;0.491919;0.119566;0.028174;-3.5478;0.1067;-3.2138;0.0;-23.9487;7.518;-33.2703;63.2933;73.3199;78.6995;0.0;68.58078;12.846286;77.66219;;NaN;;926.0;;0 / 0;3537;2017-10-03 21:24:38:315
-1.152374;-11.575184;1.269858;-2.723242;-9.406646;0.51897;0.491919;0.119566;0.028174;-3.5478;0.1067;-3.2138;0.0;-23.9487;7.518;-33.2703;63.2933;73.3199;78.6995;0.0;68.58078;12.846286;77.66219;;NaN;;926.0;;0 / 0;3546;2017-10-03 21:24:38:324
-1.152374;-11.575184;1.269858;-2.723242;-9.406646;0.51897;0.491919;0.119566;0.028174;-3.5478;0.1067;-3.2138;0.0;-23.9929;7.8156;-33.7479;63.6477;73.5791;79.2105;0.0;68.58078;12.846286;77.66219;;NaN;;926.0;;0 / 0;3556;2017-10-03 21:24:38:334
-1.152374;-11.575184;1.269858;-2.694905;-9.414468;0.525042;0.460801;0.251935;0.740144;-0.118;2.0781;-2.4847;0.0;-23.9929;7.8156;-33.7479;63.6477;73.5791;79.2105;0.0;68.58078;12.846286;77.66219;;NaN;;926.0;;0 / 0;3566;2017-10-03 21:24:38:344
-1.152374;-11.575184;1.269858;-2.694905;-9.414468;0.525042;0.460801;0.251935;0.740144;-0.118;2.0781;-2.4847;0.0;-23.9929;7.8156;-33.7479;63.6477;73.5791;79.2105;0.0;68.58078;12.846286;77.66219;;NaN;;926.0;;0 / 0;3576;2017-10-03 21:24:38:354
-0.896346;-11.47469;1.310538;-2.694905;-9.414468;0.525042;0.460801;0.251935;0.740144;-0.118;2.0781;-2.4847;0.0;-23.9929;7.8156;-33.7479;63.6477;73.5791;79.2105;0.0;68.58078;12.846286;77.66219;;NaN;;926.0;;0 / 0;3586;2017-10-03 21:24:38:364
-0.896346;-11.47469;1.310538;-2.694905;-9.414468;0.525042;0.460801;0.251935;0.740144;-0.118;2.0781;-2.4847;0.0;-23.9929;7.8156;-33.7479;63.6477;73.5791;79.2105;0.0;68.58078;12.846286;77.66219;;NaN;;926.0;;0 / 0;3597;2017-10-03 21:24:38:375
-0.896346;-11.47469;1.310538;-2.694905;-9.414468;0.525042;0.460801;0.251935;0.740144;-0.118;2.0781;-2.4847;0.0;-23.9929;7.8156;-33.7479;63.6477;73.5791;79.2105;0.0;68.58078;12.846286;77.66219;;NaN;;926.0;;0 / 0;3607;2017-10-03 21:24:38:385
-0.837722;-11.705602;1.204063;-2.697463;-9.413808;0.523726;0.289406;0.305155;0.525382;-0.4214;2.4514;0.4905;0.0;-23.9929;7.8156;-33.7479;63.6477;73.5791;79.2105;0.0;56.14009;12.846286;77.66219;;NaN;;926.0;;0 / 0;3616;2017-10-03 21:24:38:394
-0.837722;-11.705602;1.204063;-2.697463;-9.413808;0.523726;0.289406;0.305155;0.525382;-0.4214;2.4514;0.4905;0.0;-23.9655;7.7606;-33.9813;63.845;73.7278;79.0125;0.0;56.14009;12.846286;77.66219;;NaN;;926.0;;0 / 0;3627;2017-10-03 21:24:38:405
-0.837722;-11.705602;1.204063;-2.697463;-9.413808;0.523726;0.289406;0.305155;0.525382;-0.4214;2.4514;0.4905;0.0;-23.9655;7.7606;-33.9813;63.845;73.7278;79.0125;0.0;56.14009;12.846286;77.66219;;NaN;;926.0;;0 / 0;3636;2017-10-03 21:24:38:414
-0.837722;-11.705602;1.204063;-2.697463;-9.413808;0.523726;0.289406;0.305155;0.525382;-0.4214;2.4514;0.4905;0.0;-23.9655;7.7606;-33.9813;63.845;73.7278;79.0125;0.0;56.14009;12.846286;77.66219;;NaN;;926.0;;0 / 0;3646;2017-10-03 21:24:38:424
-0.696548;-11.72234;1.2555;-2.697463;-9.413808;0.523726;0.289406;0.305155;0.525382;-0.4214;2.4514;0.4905;0.0;-23.9655;7.7606;-33.9813;63.845;73.7278;79.0125;0.0;56.14009;12.846286;77.66219;;NaN;;926.0;;0 / 0;3656;2017-10-03 21:24:38:434
-0.696548;-11.72234;1.2555;-2.697463;-9.413808;0.523726;0.289406;0.305155;0.525382;-0.4214;2.4514;0.4905;0.0;-23.9655;7.7606;-33.9813;63.845;73.7278;79.0125;0.0;56.14009;12.846286;77.66219;;NaN;;926.0;;0 / 0;3667;2017-10-03 21:24:38:445
-0.696548;-11.72234;1.2555;-2.700821;-9.413658;0.508921;0.528524;0.138943;0.430809;0.3313;9.4753;0.6714;0.0;-23.9655;7.7606;-33.9813;63.845;73.7278;79.0125;0.0;56.14009;12.846286;77.66219;;NaN;;926.0;;0 / 0;3676;2017-10-03 21:24:38:454
-0.696548;-11.72234;1.2555;-2.700821;-9.413658;0.508921;0.528524;0.138943;0.430809;0.3313;9.4753;0.6714;0.0;-23.9655;7.7606;-33.9813;63.845;73.7278;79.0125;0.0;56.14009;12.846286;77.66219;;NaN;;926.0;;0 / 0;3686;2017-10-03 21:24:38:464
-0.846099;-11.620656;1.129874;-2.700821;-9.413658;0.508921;0.528524;0.138943;0.430809;0.3313;9.4753;0.6714;0.0;-23.996;7.7515;-33.7799;63.5438;73.7247;79.3288;0.0;56.14009;12.846286;77.66219;;NaN;;926.0;;0 / 0;3696;2017-10-03 21:24:38:474
-0.846099;-11.620656;1.129874;-2.700821;-9.413658;0.508921;0.528524;0.138943;0.430809;0.3313;9.4753;0.6714;0.0;-23.996;7.7515;-33.7799;63.5438;73.7247;79.3288;0.0;56.14009;12.846286;77.66219;;NaN;;926.0;;0 / 0;3707;2017-10-03 21:24:38:485
-0.846099;-11.620656;1.129874;-2.700821;-9.413658;0.508921;0.528524;0.138943;0.430809;0.3313;9.4753;0.6714;0.0;-23.996;7.7515;-33.7799;63.5438;73.7247;79.3288;0.0;56.14009;12.846286;77.66219;;NaN;;926.0;;0 / 0;3716;2017-10-03 21:24:38:494
-0.846099;-11.620656;1.129874;-2.700821;-9.413658;0.508921;0.528524;0.138943;0.430809;0.3313;9.4753;0.6714;0.0;-23.996;7.7515;-33.7799;63.5438;73.7247;79.3288;0.0;56.14009;12.846286;77.66219;;NaN;;926.0;;0 / 0;3726;2017-10-03 21:24:38:504
-0.76593;-11.645772;1.034171;-2.702777;-9.414184;0.488384;0.502203;0.192862;0.342271;0.7571;12.5431;0.3042;0.0;-23.996;7.7515;-33.7799;63.5438;73.7247;79.3288;0.0;56.14009;12.846286;77.66219;;NaN;;926.0;;0 / 0;3737;2017-10-03 21:24:38:515
-0.76593;-11.645772;1.034171;-2.702777;-9.414184;0.488384;0.502203;0.192862;0.342271;0.7571;12.5431;0.3042;0.0;-23.996;7.7515;-33.7799;63.5438;73.7247;79.3288;0.0;56.14009;12.846286;77.66219;;NaN;;926.0;;0 / 0;3746;2017-10-03 21:24:38:524
-0.76593;-11.645772;1.034171;-2.702777;-9.414184;0.488384;0.502203;0.192862;0.342271;0.7571;12.5431;0.3042;0.0;-23.8815;7.6386;-33.873;63.1366;73.7356;79.7573;0.0;56.14009;12.846286;77.66219;;NaN;;926.0;;0 / 0;3756;2017-10-03 21:24:38:534
-0.533828;-11.646976;1.04853;-2.702777;-9.414184;0.488384;0.502203;0.192862;0.342271;0.7571;12.5431;0.3042;0.0;-23.8815;7.6386;-33.873;63.1366;73.7356;79.7573;0.0;56.14009;12.846286;77.66219;;NaN;;926.0;;0 / 0;3767;2017-10-03 21:24:38:545
-0.533828;-11.646976;1.04853;-2.702777;-9.414184;0.488384;0.502203;0.192862;0.342271;0.7571;12.5431;0.3042;0.0;-23.8815;7.6386;-33.873;63.1366;73.7356;79.7573;0.0;56.14009;12.846286;77.66219;;NaN;;926.0;;0 / 0;3777;2017-10-03 21:24:38:555
-0.533828;-11.646976;1.04853;-2.707308;-9.414136;0.463576;0.741118;0.163626;0.285976;0.535;13.0038;0.9984;0.0;-23.8815;7.6386;-33.873;63.1366;73.7356;79.7573;0.0;56.14009;12.846286;77.66219;;NaN;;926.0;;0 / 0;3787;2017-10-03 21:24:38:565
-0.533828;-11.646976;1.04853;-2.707308;-9.414136;0.463576;0.741118;0.163626;0.285976;0.535;13.0038;0.9984;0.0;-23.8815;7.6386;-33.873;63.1366;73.7356;79.7573;0.0;56.14009;12.846286;77.66219;;NaN;;926.0;;0 / 0;3797;2017-10-03 21:24:38:575
-0.441711;-11.743886;0.853507;-2.707308;-9.414136;0.463576;0.741118;0.163626;0.285976;0.535;13.0038;0.9984;0.0;-23.8815;7.6386;-33.873;63.1366;73.7356;79.7573;0.0;56.14009;12.846286;77.66219;;NaN;;926.0;;0 / 0;3807;2017-10-03 21:24:38:585
-0.441711;-11.743886;0.853507;-2.707308;-9.414136;0.463576;0.741118;0.163626;0.285976;0.535;13.0038;0.9984;0.0;-23.8815;7.6386;-33.873;63.1366;73.7356;79.7573;0.0;56.14009;12.846286;77.66219;;NaN;;926.0;;0 / 0;3816;2017-10-03 21:24:38:594
-0.441711;-11.743886;0.853507;-2.707308;-9.414136;0.463576;0.741118;0.163626;0.285976;0.535;13.0038;0.9984;0.0;-23.9929;7.6431;-34.3262;62.6359;73.7346;80.2834;0.0;56.14009;12.846286;77.66219;;NaN;;926.0;;0 / 0;3826;2017-10-03 21:24:38:604
-0.441711;-11.743886;0.853507;-2.707308;-9.414136;0.463576;0.741118;0.163626;0.285976;0.535;13.0038;0.9984;0.0;-23.9929;7.6431;-34.3262;62.6359;73.7346;80.2834;0.0;56.14009;12.846286;77.66219;;NaN;;926.0;;0 / 0;3836;2017-10-03 21:24:38:614
-0.421371;-11.778584;0.768561;-2.701971;-9.416684;0.442505;0.734154;0.160601;0.307407;0.8157;12.7066;-0.0227;0.0;-23.9929;7.6431;-34.3262;62.6359;73.7346;80.2834;0.0;56.14009;12.846286;77.66219;;NaN;;926.0;;0 / 0;3847;2017-10-03 21:24:38:625
-0.421371;-11.778584;0.768561;-2.701971;-9.416684;0.442505;0.734154;0.160601;0.307407;0.8157;12.7066;-0.0227;0.0;-23.9929;7.6431;-34.3262;62.6359;73.7346;80.2834;0.0;56.14009;12.846286;77.66219;;NaN;;926.0;;0 / 0;3857;2017-10-03 21:24:38:635
-0.421371;-11.778584;0.768561;-2.701971;-9.416684;0.442505;0.734154;0.160601;0.307407;0.8157;12.7066;-0.0227;0.0;-23.9929;7.6431;-34.3262;62.6359;73.7346;80.2834;0.0;56.14009;12.846286;77.66219;;NaN;;926.0;;0 / 0;3866;2017-10-03 21:24:38:644
-0.421371;-11.778584;0.768561;-2.701971;-9.416684;0.442505;0.734154;0.160601;0.307407;0.8157;12.7066;-0.0227;0.0;-23.9929;7.6431;-34.3262;62.6359;73.7346;80.2834;0.0;56.14009;12.846286;77.66219;;NaN;;926.0;;0 / 0;3876;2017-10-03 21:24:38:654
-0.345992;-11.652958;1.067664;-2.701971;-9.416684;0.442505;0.734154;0.160601;0.307407;0.8157;12.7066;-0.0227;0.0;-23.9929;7.6431;-34.3262;62.6359;73.7346;80.2834;0.0;56.14009;12.846286;77.66219;;NaN;;926.0;;0 / 0;3887;2017-10-03 21:24:38:665
-0.345992;-11.652958;1.067664;-2.701971;-9.416684;0.442505;0.734154;0.160601;0.307407;0.8157;12.7066;-0.0227;0.0;-23.9044;7.6248;-34.4223;62.243;73.7879;80.6992;0.0;56.14009;12.846286;77.66219;;NaN;;926.0;;0 / 0;3897;2017-10-03 21:24:38:675
-0.345992;-11.652958;1.067664;-2.700832;-9.417836;0.424555;0.876127;0.074078;0.081088;-0.2229;6.5176;1.0098;0.0;-23.9044;7.6248;-34.4223;62.243;73.7879;80.6992;0.0;56.14009;12.846286;77.66219;;NaN;;926.0;;0 / 0;3907;2017-10-03 21:24:38:685
-0.345992;-11.652958;1.067664;-2.700832;-9.417836;0.424555;0.876127;0.074078;0.081088;-0.2229;6.5176;1.0098;0.0;-23.9044;7.6248;-34.4223;62.243;73.7879;80.6992;0.0;56.14009;12.846286;77.66219;;NaN;;926.0;;0 / 0;3916;2017-10-03 21:24:38:694
-0.706115;-11.71996;1.218421;-2.700832;-9.417836;0.424555;0.876127;0.074078;0.081088;-0.2229;6.5176;1.0098;0.0;-23.9044;7.6248;-34.4223;62.243;73.7879;80.6992;0.0;56.14009;12.846286;77.66219;;NaN;;926.0;;0 / 0;3927;2017-10-03 21:24:38:705
-0.706115;-11.71996;1.218421;-2.700832;-9.417836;0.424555;0.876127;0.074078;0.081088;-0.2229;6.5176;1.0098;0.0;-23.9044;7.6248;-34.4223;62.243;73.7879;80.6992;0.0;56.14009;12.846286;77.66219;;NaN;;926.0;;0 / 0;3937;2017-10-03 21:24:38:715
-0.706115;-11.71996;1.218421;-2.700832;-9.417836;0.424555;0.876127;0.074078;0.081088;-0.2229;6.5176;1.0098;0.0;-23.9044;7.6248;-34.4223;62.243;73.7879;80.6992;0.0;52.67969;12.846286;77.66219;;NaN;;926.0;;0 / 0;3947;2017-10-03 21:24:38:725
-0.901122;-11.773792;0.900168;-2.683732;-9.421992;0.440459;0.845745;0.139345;0.341625;2.8046;6.0919;-0.7519;0.0;-23.9044;7.6248;-34.4223;62.243;73.7879;80.6992;0.0;52.67969;12.846286;77.66219;;NaN;;926.0;;0 / 0;3956;2017-10-03 21:24:38:734
-0.901122;-11.773792;0.900168;-2.683732;-9.421992;0.440459;0.845745;0.139345;0.341625;2.8046;6.0919;-0.7519;0.0;-23.8007;7.4951;-34.5657;63.3909;73.8993;80.6796;0.0;52.67969;12.846286;77.66219;;NaN;;926.0;;0 / 0;3967;2017-10-03 21:24:38:745
-0.901122;-11.773792;0.900168;-2.683732;-9.421992;0.440459;0.845745;0.139345;0.341625;2.8046;6.0919;-0.7519;0.0;-23.8007;7.4951;-34.5657;63.3909;73.8993;80.6796;0.0;52.67969;12.846286;77.66219;;NaN;;926.0;;0 / 0;3976;2017-10-03 21:24:38:754
-0.901122;-11.773792;0.900168;-2.683732;-9.421992;0.440459;0.845745;0.139345;0.341625;2.8046;6.0919;-0.7519;0.0;-23.8007;7.4951;-34.5657;63.3909;73.8993;80.6796;0.0;52.67969;12.846286;77.66219;;NaN;;926.0;;0 / 0;3987;2017-10-03 21:24:38:765
-1.049484;-11.585958;0.94683;-2.683732;-9.421992;0.440459;0.845745;0.139345;0.341625;2.8046;6.0919;-0.7519;0.0;-23.8007;7.4951;-34.5657;63.3909;73.8993;80.6796;0.0;52.67969;12.846286;77.66219;;NaN;;926.0;;0 / 0;3996;2017-10-03 21:24:38:774
-1.049484;-11.585958;0.94683;-2.683732;-9.421992;0.440459;0.845745;0.139345;0.341625;2.8046;6.0919;-0.7519;0.0;-23.8007;7.4951;-34.5657;63.3909;73.8993;80.6796;0.0;52.67969;12.846286;77.66219;;NaN;;926.0;;0 / 0;4007;2017-10-03 21:24:38:785
-1.049484;-11.585958;0.94683;-2.665087;-9.428068;0.423333;0.400009;0.106911;0.197191;1.6847;13.698;-2.0003;0.0;-23.8007;7.4951;-34.5657;63.3909;73.8993;80.6796;0.0;52.67969;12.846286;77.66219;;NaN;;926.0;;0 / 0;4017;2017-10-03 21:24:38:795
-1.049484;-11.585958;0.94683;-2.665087;-9.428068;0.423333;0.400009;0.106911;0.197191;1.6847;13.698;-2.0003;0.0;-23.671;7.3822;-34.4543;62.3241;74.0278;80.9743;0.0;52.67969;12.846286;77.66219;;NaN;;926.0;;0 / 0;4027;2017-10-03 21:24:38:805
-1.073409;-11.727132;0.989905;-2.665087;-9.428068;0.423333;0.400009;0.106911;0.197191;1.6847;13.698;-2.0003;0.0;-23.671;7.3822;-34.4543;62.3241;74.0278;80.9743;0.0;52.67969;12.846286;77.66219;;NaN;;926.0;;0 / 0;4036;2017-10-03 21:24:38:814
-1.073409;-11.727132;0.989905;-2.665087;-9.428068;0.423333;0.400009;0.106911;0.197191;1.6847;13.698;-2.0003;0.0;-23.671;7.3822;-34.4543;62.3241;74.0278;80.9743;0.0;52.67969;12.846286;77.66219;;NaN;;926.0;;0 / 0;4047;2017-10-03 21:24:38:825
-1.073409;-11.727132;0.989905;-2.665087;-9.428068;0.423333;0.400009;0.106911;0.197191;1.6847;13.698;-2.0003;0.0;-23.671;7.3822;-34.4543;62.3241;74.0278;80.9743;0.0;52.67969;12.846286;77.66219;;NaN;;926.0;;0 / 0;4056;2017-10-03 21:24:38:834
-1.073409;-11.727132;0.989905;-2.665087;-9.428068;0.423333;0.400009;0.106911;0.197191;1.6847;13.698;-2.0003;0.0;-23.671;7.3822;-34.4543;62.3241;74.0278;80.9743;0.0;52.67969;12.846286;77.66219;;NaN;;926.0;;0 / 0;4068;2017-10-03 21:24:38:846
-0.753967;-11.760624;0.896583;-2.646124;-9.435104;0.383669;0.212485;0.137795;0.282775;1.5562;22.4537;-2.6884;0.0;-23.671;7.3822;-34.4543;62.3241;74.0278;80.9743;0.0;52.67969;12.846286;77.66219;;NaN;;926.0;;0 / 0;4076;2017-10-03 21:24:38:854
-0.753967;-11.760624;0.896583;-2.646124;-9.435104;0.383669;0.212485;0.137795;0.282775;1.5562;22.4537;-2.6884;0.0;-23.671;7.3822;-34.4543;62.3241;74.0278;80.9743;0.0;52.67969;12.846286;77.66219;;NaN;;926.0;;0 / 0;4086;2017-10-03 21:24:38:864
-0.753967;-11.760624;0.896583;-2.646124;-9.435104;0.383669;0.212485;0.137795;0.282775;1.5562;22.4537;-2.6884;0.0;-23.3749;7.4051;-34.6283;63.4263;74.1779;81.75;0.0;52.67969;12.846286;77.66219;;NaN;;926.0;;0 / 0;4096;2017-10-03 21:24:38:874
-0.673812;-11.709188;1.034171;-2.646124;-9.435104;0.383669;0.212485;0.137795;0.282775;1.5562;22.4537;-2.6884;0.0;-23.3749;7.4051;-34.6283;63.4263;74.1779;81.75;0.0;52.67969;12.846286;77.66219;;NaN;;926.0;;0 / 0;4107;2017-10-03 21:24:38:885
-0.673812;-11.709188;1.034171;-2.646124;-9.435104;0.383669;0.212485;0.137795;0.282775;1.5562;22.4537;-2.6884;0.0;-23.3749;7.4051;-34.6283;63.4263;74.1779;81.75;0.0;52.67969;12.846286;77.66219;;NaN;;926.0;;0 / 0;4116;2017-10-03 21:24:38:894
-0.673812;-11.709188;1.034171;-2.624505;-9.443578;0.318098;0.53335;0.096855;0.350354;1.5562;22.4537;-2.6884;0.0;-23.3749;7.4051;-34.6283;63.4263;74.1779;81.75;0.0;52.67969;12.846286;77.66219;;NaN;;926.0;;0 / 0;4127;2017-10-03 21:24:38:905
-0.673812;-11.709188;1.034171;-2.624505;-9.443578;0.318098;0.53335;0.096855;0.350354;-1.5064;22.0166;-2.274;0.0;-23.3749;7.4051;-34.6283;63.4263;74.1779;81.75;0.0;52.67969;12.846286;77.66219;;NaN;;926.0;;0 / 0;4136;2017-10-03 21:24:38:914
-0.544601;-11.613468;1.055701;-2.624505;-9.443578;0.318098;0.53335;0.096855;0.350354;-1.5064;22.0166;-2.274;0.0;-23.3749;7.4051;-34.6283;63.4263;74.1779;81.75;0.0;52.67969;12.846286;77.66219;;NaN;;926.0;;0 / 0;4147;2017-10-03 21:24:38:925
-0.544601;-11.613468;1.055701;-2.624505;-9.443578;0.318098;0.53335;0.096855;0.350354;-1.5064;22.0166;-2.274;0.0;-23.3749;7.4051;-34.6283;63.4263;74.1779;81.75;0.0;52.67969;12.846286;77.66219;;NaN;;926.0;;0 / 0;4157;2017-10-03 21:24:38:935
-0.544601;-11.613468;1.055701;-2.624505;-9.443578;0.318098;0.53335;0.096855;0.350354;-1.5064;22.0166;-2.274;0.0;-23.1369;7.312;-34.6786;62.1512;74.3605;83.0893;0.0;52.67969;12.846286;77.66219;;NaN;;926.0;;0 / 0;4166;2017-10-03 21:24:38:944
-0.544601;-11.613468;1.055701;-2.624505;-9.443578;0.318098;0.53335;0.096855;0.350354;-1.5064;22.0166;-2.274;0.0;-23.1369;7.312;-34.6786;62.1512;74.3605;83.0893;0.0;52.67969;12.846286;77.66219;;NaN;;926.0;;0 / 0;4177;2017-10-03 21:24:38:955
-0.514694;-11.629032;0.863074;-2.592596;-9.454068;0.263448;0.656777;0.19899;0.43438;-0.7361;21.3399;-3.0381;0.0;-23.1369;7.312;-34.6786;62.1512;74.3605;83.0893;0.0;52.67969;12.846286;77.66219;;NaN;;926.0;;0 / 0;4187;2017-10-03 21:24:38:965
-0.514694;-11.629032;0.863074;-2.592596;-9.454068;0.263448;0.656777;0.19899;0.43438;-0.7361;21.3399;-3.0381;0.0;-23.1369;7.312;-34.6786;62.1512;74.3605;83.0893;0.0;52.67969;12.846286;77.66219;;NaN;;926.0;;0 / 0;4196;2017-10-03 21:24:38:974
-0.514694;-11.629032;0.863074;-2.592596;-9.454068;0.263448;0.656777;0.19899;0.43438;-0.7361;21.3399;-3.0381;0.0;-23.1369;7.312;-34.6786;62.1512;74.3605;83.0893;0.0;52.67969;12.846286;77.66219;;NaN;;926.0;;0 / 0;4207;2017-10-03 21:24:38:985
-0.514694;-11.629032;0.863074;-2.592596;-9.454068;0.263448;0.656777;0.19899;0.43438;-0.7361;21.3399;-3.0381;0.0;-23.1369;7.312;-34.6786;62.1512;74.3605;83.0893;0.0;52.67969;12.846286;77.66219;;NaN;;926.0;;0 / 0;4216;2017-10-03 21:24:38:994
-0.521865;-11.825246;0.624991;-2.592596;-9.454068;0.263448;0.656777;0.19899;0.43438;-0.7361;21.3399;-3.0381;0.0;-22.7631;7.2357;-34.7702;61.0966;74.5895;84.1978;0.0;52.67969;12.846286;77.66219;;NaN;;926.0;;0 / 0;4226;2017-10-03 21:24:39:004
-0.521865;-11.825246;0.624991;-2.592596;-9.454068;0.263448;0.656777;0.19899;0.43438;-0.7361;21.3399;-3.0381;0.0;-22.7631;7.2357;-34.7702;61.0966;74.5895;84.1978;0.0;52.67969;12.846286;77.66219;;NaN;;926.0;;0 / 0;4237;2017-10-03 21:24:39:015
-0.521865;-11.825246;0.624991;-2.564294;-9.462468;0.23766;0.626899;0.201709;0.460343;0.8795;16.4047;-2.4785;0.0;-22.7631;7.2357;-34.7702;61.0966;74.5895;84.1978;0.0;52.67969;12.846286;77.66219;;NaN;;926.0;;0 / 0;4246;2017-10-03 21:24:39:024
-0.521865;-11.825246;0.624991;-2.564294;-9.462468;0.23766;0.626899;0.201709;0.460343;0.8795;16.4047;-2.4785;0.0;-22.7631;7.2357;-34.7702;61.0966;74.5895;84.1978;0.0;52.67969;12.846286;77.66219;;NaN;;926.0;;0 / 0;4256;2017-10-03 21:24:39:034
0.830079;-11.657734;0.037559;-2.564294;-9.462468;0.23766;0.626899;0.201709;0.460343;0.8795;16.4047;-2.4785;0.0;-22.7631;7.2357;-34.7702;61.0966;74.5895;84.1978;0.0;52.67969;12.846286;77.66219;;NaN;;926.0;;0 / 0;4267;2017-10-03 21:24:39:045
0.830079;-11.657734;0.037559;-2.564294;-9.462468;0.23766;0.626899;0.201709;0.460343;0.8795;16.4047;-2.4785;0.0;-22.7631;7.2357;-34.7702;61.0966;74.5895;84.1978;0.0;57.28722;12.846286;77.66219;;NaN;;926.0;;0 / 0;4276;2017-10-03 21:24:39:054
0.830079;-11.657734;0.037559;-2.564294;-9.462468;0.23766;0.626899;0.201709;0.460343;0.8795;16.4047;-2.4785;0.0;-22.7631;7.2357;-34.7702;61.0966;74.5895;84.1978;0.0;57.28722;12.846286;77.66219;;NaN;;926.0;;0 / 0;4286;2017-10-03 21:24:39:064
-0.759948;-11.88506;1.4589;-2.583874;-9.459914;0.063284;0.801022;0.095385;0.10628;-12.8578;21.8129;3.0285;0.0;-22.4945;7.1228;-34.761;61.6993;74.7753;84.7049;0.0;57.28722;12.846286;77.66219;;NaN;;926.0;;0 / 0;4297;2017-10-03 21:24:39:075
-0.759948;-11.88506;1.4589;-2.583874;-9.459914;0.063284;0.801022;0.095385;0.10628;-12.8578;21.8129;3.0285;0.0;-22.4945;7.1228;-34.761;61.6993;74.7753;84.7049;0.0;57.28722;12.846286;77.66219;;NaN;;926.0;;0 / 0;4306;2017-10-03 21:24:39:084
-0.759948;-11.88506;1.4589;-2.583874;-9.459914;0.063284;0.801022;0.095385;0.10628;-12.8578;21.8129;3.0285;0.0;-22.4945;7.1228;-34.761;61.6993;74.7753;84.7049;0.0;57.28722;12.846286;77.66219;;NaN;;926.0;;0 / 0;4316;2017-10-03 21:24:39:094
-0.759948;-11.88506;1.4589;-2.583874;-9.459914;0.063284;0.801022;0.095385;0.10628;-12.8578;21.8129;3.0285;0.0;-22.4945;7.1228;-34.761;61.6993;74.7753;84.7049;0.0;57.28722;12.846286;77.66219;;NaN;;926.0;;0 / 0;4327;2017-10-03 21:24:39:105
-0.984878;-11.53571;0.47425;-2.583874;-9.459914;0.063284;0.801022;0.095385;0.10628;-12.8578;21.8129;3.0285;0.0;-22.4945;7.1228;-34.761;61.6993;74.7753;84.7049;0.0;57.28722;12.846286;77.66219;;NaN;;926.0;;0 / 0;4337;2017-10-03 21:24:39:115
-0.984878;-11.53571;0.47425;-2.583874;-9.459914;0.063284;0.801022;0.095385;0.10628;-12.8578;21.8129;3.0285;0.0;-22.4945;7.1228;-34.761;61.6993;74.7753;84.7049;0.0;57.28722;12.846286;77.66219;;NaN;;926.0;;0 / 0;4346;2017-10-03 21:24:39:124
-0.984878;-11.53571;0.47425;-2.574113;-9.461674;0.145039;0.853503;0.118047;0.704074;6.4503;-3.6387;0.3917;0.0;-22.4945;7.1228;-34.761;61.6993;74.7753;84.7049;0.0;57.28722;12.846286;77.66219;;NaN;;926.0;;0 / 0;4357;2017-10-03 21:24:39:135
-0.984878;-11.53571;0.47425;-2.574113;-9.461674;0.145039;0.853503;0.118047;0.704074;6.4503;-3.6387;0.3917;0.0;-22.1558;7.1091;-34.8373;59.7119;74.7576;86.7751;0.0;57.28722;12.846286;77.66219;;NaN;;926.0;;0 / 0;4366;2017-10-03 21:24:39:144
-0.844894;-11.602712;0.697974;-2.574113;-9.461674;0.145039;0.853503;0.118047;0.704074;6.4503;-3.6387;0.3917;0.0;-22.1558;7.1091;-34.8373;59.7119;74.7576;86.7751;0.0;57.28722;12.846286;77.66219;;NaN;;926.0;;0 / 0;4376;2017-10-03 21:24:39:154
-0.844894;-11.602712;0.697974;-2.574113;-9.461674;0.145039;0.853503;0.118047;0.704074;6.4503;-3.6387;0.3917;0.0;-22.1558;7.1091;-34.8373;59.7119;74.7576;86.7751;0.0;57.28722;12.846286;77.66219;;NaN;;926.0;;0 / 0;4387;2017-10-03 21:24:39:165
-0.844894;-11.602712;0.697974;-2.574113;-9.461674;0.145039;0.853503;0.118047;0.704074;6.4503;-3.6387;0.3917;0.0;-22.1558;7.1091;-34.8373;59.7119;74.7576;86.7751;0.0;57.28722;12.846286;77.66219;;NaN;;926.0;;0 / 0;4397;2017-10-03 21:24:39:175
-0.844894;-11.602712;0.697974;-2.574113;-9.461674;0.145039;0.853503;0.118047;0.704074;6.4503;-3.6387;0.3917;0.0;-22.1558;7.1091;-34.8373;59.7119;74.7576;86.7751;0.0;57.28722;12.846286;77.66219;;NaN;;926.0;;0 / 0;4406;2017-10-03 21:24:39:184
-0.043304;-11.765416;0.53527;-2.570021;-9.46147;0.214387;0.204391;0.264032;0.090789;5.528;-6.2283;-0.0927;0.0;-22.1558;7.1091;-34.8373;59.7119;74.7576;86.7751;0.0;57.28722;12.846286;77.66219;;NaN;;926.0;;0 / 0;4417;2017-10-03 21:24:39:195
-0.043304;-11.765416;0.53527;-2.570021;-9.46147;0.214387;0.204391;0.264032;0.090789;5.528;-6.2283;-0.0927;0.0;-21.8597;6.9412;-35.0281;61.1932;74.7531;85.2315;0.0;57.28722;12.846286;77.66219;;NaN;;926.0;;0 / 0;4426;2017-10-03 21:24:39:204
-0.043304;-11.765416;0.53527;-2.570021;-9.46147;0.214387;0.204391;0.264032;0.090789;5.528;-6.2283;-0.0927;0.0;-21.8597;6.9412;-35.0281;61.1932;74.7531;85.2315;0.0;57.28722;12.846286;77.66219;;NaN;;926.0;;0 / 0;4437;2017-10-03 21:24:39:215
-0.043304;-11.765416;0.53527;-2.570021;-9.46147;0.214387;0.204391;0.264032;0.090789;5.528;-6.2283;-0.0927;0.0;-21.8597;6.9412;-35.0281;61.1932;74.7531;85.2315;0.0;57.28722;12.846286;77.66219;;NaN;;926.0;;0 / 0;4446;2017-10-03 21:24:39:224
0.069169;-11.820454;0.736259;-2.570021;-9.46147;0.214387;0.204391;0.264032;0.090789;5.528;-6.2283;-0.0927;0.0;-21.8597;6.9412;-35.0281;61.1932;74.7531;85.2315;0.0;57.28722;12.846286;77.66219;;NaN;;926.0;;0 / 0;4456;2017-10-03 21:24:39:234
0.069169;-11.820454;0.736259;-2.570021;-9.46147;0.214387;0.204391;0.264032;0.090789;5.528;-6.2283;-0.0927;0.0;-21.8597;6.9412;-35.0281;61.1932;74.7531;85.2315;0.0;57.28722;12.846286;77.66219;;NaN;;926.0;;0 / 0;4466;2017-10-03 21:24:39:244
0.069169;-11.820454;0.736259;-2.554304;-9.465192;0.236722;1.124403;0.010112;0.106517;0.6697;-5.5516;0.3506;0.0;-21.8597;6.9412;-35.0281;61.1932;74.7531;85.2315;0.0;57.28722;12.846286;77.66219;;NaN;;926.0;;0 / 0;4477;2017-10-03 21:24:39:255
0.069169;-11.820454;0.736259;-2.554304;-9.465192;0.236722;1.124403;0.010112;0.106517;0.6697;-5.5516;0.3506;0.0;-21.8597;6.9412;-35.0281;61.1932;74.7531;85.2315;0.0;57.28722;12.846286;77.66219;;NaN;;926.0;;0 / 0;4486;2017-10-03 21:24:39:264
-0.483581;-11.96642;1.037757;-2.554304;-9.465192;0.236722;1.124403;0.010112;0.106517;0.6697;-5.5516;0.3506;0.0;-21.6431;6.8939;-35.0052;61.7014;74.836;84.7052;0.0;57.28722;12.846286;77.66219;;NaN;;926.0;;0 / 0;4497;2017-10-03 21:24:39:275
-0.483581;-11.96642;1.037757;-2.554304;-9.465192;0.236722;1.124403;0.010112;0.106517;0.6697;-5.5516;0.3506;0.0;-21.6431;6.8939;-35.0052;61.7014;74.836;84.7052;0.0;57.28722;12.846286;77.66219;;NaN;;926.0;;0 / 0;4506;2017-10-03 21:24:39:284
-0.483581;-11.96642;1.037757;-2.554304;-9.465192;0.236722;1.124403;0.010112;0.106517;0.6697;-5.5516;0.3506;0.0;-21.6431;6.8939;-35.0052;61.7014;74.836;84.7052;0.0;57.28722;12.846286;77.66219;;NaN;;926.0;;0 / 0;4517;2017-10-03 21:24:39:295
-0.613983;-11.704396;0.78173;-2.517573;-9.473534;0.290474;0.699555;0.007435;0.371554;1.9881;-11.3558;-2.4138;0.0;-21.6431;6.8939;-35.0052;61.7014;74.836;84.7052;0.0;57.28722;12.846286;77.66219;;NaN;;926.0;;0 / 0;4526;2017-10-03 21:24:39:304
-0.613983;-11.704396;0.78173;-2.517573;-9.473534;0.290474;0.699555;0.007435;0.371554;1.9881;-11.3558;-2.4138;0.0;-21.6431;6.8939;-35.0052;61.7014;74.836;84.7052;0.0;57.28722;12.846286;77.66219;;NaN;;926.0;;0 / 0;4537;2017-10-03 21:24:39:315
-0.613983;-11.704396;0.78173;-2.517573;-9.473534;0.290474;0.699555;0.007435;0.371554;1.9881;-11.3558;-2.4138;0.0;-21.6431;6.8939;-35.0052;61.7014;74.836;84.7052;0.0;57.28722;12.846286;77.66219;;NaN;;926.0;;0 / 0;4546;2017-10-03 21:24:39:324
-0.613983;-11.704396;0.78173;-2.517573;-9.473534;0.290474;0.699555;0.007435;0.371554;1.9881;-11.3558;-2.4138;0.0;-21.6431;6.8939;-35.0052;61.7014;74.836;84.7052;0.0;57.28722;12.846286;77.66219;;NaN;;926.0;;0 / 0;4556;2017-10-03 21:24:39:334
-1.048293;-11.564426;0.786506;-2.517573;-9.473534;0.290474;0.699555;0.007435;0.371554;1.9881;-11.3558;-2.4138;0.0;-21.2128;6.7154;-35.2936;64.0567;75.0234;83.4184;0.0;57.28722;12.846286;77.66219;;NaN;;926.0;;0 / 0;4567;2017-10-03 21:24:39:345
-1.048293;-11.564426;0.786506;-2.517573;-9.473534;0.290474;0.699555;0.007435;0.371554;1.9881;-11.3558;-2.4138;0.0;-21.2128;6.7154;-35.2936;64.0567;75.0234;83.4184;0.0;57.28722;12.846286;77.66219;;NaN;;926.0;;0 / 0;4576;2017-10-03 21:24:39:354
-1.048293;-11.564426;0.786506;-2.46615;-9.486708;0.301451;0.078627;0.263859;0.42244;-0.2981;-2.6062;-5.3828;0.0;-21.2128;6.7154;-35.2936;64.0567;75.0234;83.4184;0.0;57.28722;12.846286;77.66219;;NaN;;926.0;;0 / 0;4587;2017-10-03 21:24:39:365
-1.048293;-11.564426;0.786506;-2.46615;-9.486708;0.301451;0.078627;0.263859;0.42244;-0.2981;-2.6062;-5.3828;0.0;-21.2128;6.7154;-35.2936;64.0567;75.0234;83.4184;0.0;55.8962;12.846286;77.66219;;NaN;;926.0;;0 / 0;4596;2017-10-03 21:24:39:374
-0.925063;-12.039402;0.858298;-2.46615;-9.486708;0.301451;0.078627;0.263859;0.42244;-0.2981;-2.6062;-5.3828;0.0;-21.2128;6.7154;-35.2936;64.0567;75.0234;83.4184;0.0;55.8962;12.846286;77.66219;;NaN;;926.0;;0 / 0;4607;2017-10-03 21:24:39:385
-0.925063;-12.039402;0.858298;-2.46615;-9.486708;0.301451;0.078627;0.263859;0.42244;-0.2981;-2.6062;-5.3828;0.0;-21.2128;6.7154;-35.2936;64.0567;75.0234;83.4184;0.0;55.8962;12.846286;77.66219;;NaN;;926.0;;0 / 0;4616;2017-10-03 21:24:39:394
-0.925063;-12.039402;0.858298;-2.46615;-9.486708;0.301451;0.078627;0.263859;0.42244;-0.2981;-2.6062;-5.3828;0.0;-21.2128;6.7154;-35.2936;64.0567;75.0234;83.4184;0.0;55.8962;12.846286;77.66219;;NaN;;926.0;;0 / 0;4627;2017-10-03 21:24:39:405
-0.916686;-11.72115;0.02201;-2.434959;-9.491622;0.38793;0.046436;0.264588;0.336329;-0.2981;-2.6062;-5.3828;0.0;-21.0754;6.6803;-35.2997;64.4449;75.3242;83.031;0.0;55.8962;12.846286;77.66219;;NaN;;926.0;;0 / 0;4636;2017-10-03 21:24:39:414
-0.916686;-11.72115;0.02201;-2.434959;-9.491622;0.38793;0.046436;0.264588;0.336329;2.0405;-25.3502;-2.4374;0.0;-21.0754;6.6803;-35.2997;64.4449;75.3242;83.031;0.0;55.8962;12.846286;77.66219;;NaN;;926.0;;0 / 0;4647;2017-10-03 21:24:39:425
-0.916686;-11.72115;0.02201;-2.434959;-9.491622;0.38793;0.046436;0.264588;0.336329;2.0405;-25.3502;-2.4374;0.0;-21.0754;6.6803;-35.2997;64.4449;75.3242;83.031;0.0;55.8962;12.846286;77.66219;;NaN;;926.0;;0 / 0;4656;2017-10-03 21:24:39:434
-0.916686;-11.72115;0.02201;-2.434959;-9.491622;0.38793;0.046436;0.264588;0.336329;2.0405;-25.3502;-2.4374;0.0;-21.0754;6.6803;-35.2997;64.4449;75.3242;83.031;0.0;55.8962;12.846286;77.66219;;NaN;;926.0;;0 / 0;4667;2017-10-03 21:24:39:445
0.662583;-11.748662;0.916923;-2.434959;-9.491622;0.38793;0.046436;0.264588;0.336329;2.0405;-25.3502;-2.4374;0.0;-21.0754;6.6803;-35.2997;64.4449;75.3242;83.031;0.0;55.8962;12.846286;77.66219;;NaN;;926.0;;0 / 0;4676;2017-10-03 21:24:39:454
0.662583;-11.748662;0.916923;-2.434959;-9.491622;0.38793;0.046436;0.264588;0.336329;2.0405;-25.3502;-2.4374;0.0;-21.0754;6.6803;-35.2997;64.4449;75.3242;83.031;0.0;55.8962;12.846286;77.66219;;NaN;;926.0;;0 / 0;4687;2017-10-03 21:24:39:465
0.662583;-11.748662;0.916923;-2.427209;-9.493096;0.400163;0.254553;-0.02004;-0.390903;-8.5879;-41.3571;1.3656;0.0;-20.7184;6.34;-35.4279;67.0733;75.4723;80.6381;0.0;55.8962;12.846286;77.66219;;NaN;;926.0;;0 / 0;4696;2017-10-03 21:24:39:474
0.662583;-11.748662;0.916923;-2.427209;-9.493096;0.400163;0.254553;-0.02004;-0.390903;-8.5879;-41.3571;1.3656;0.0;-20.7184;6.34;-35.4279;67.0733;75.4723;80.6381;0.0;55.8962;12.846286;77.66219;;NaN;;926.0;;0 / 0;4707;2017-10-03 21:24:39:485
0.350312;-11.630222;1.061683;-2.427209;-9.493096;0.400163;0.254553;-0.02004;-0.390903;-8.5879;-41.3571;1.3656;0.0;-20.7184;6.34;-35.4279;67.0733;75.4723;80.6381;0.0;55.8962;12.846286;77.66219;;NaN;;926.0;;0 / 0;4717;2017-10-03 21:24:39:495
0.350312;-11.630222;1.061683;-2.427209;-9.493096;0.400163;0.254553;-0.02004;-0.390903;-8.5879;-41.3571;1.3656;0.0;-20.7184;6.34;-35.4279;67.0733;75.4723;80.6381;0.0;55.8962;12.846286;77.66219;;NaN;;926.0;;0 / 0;4726;2017-10-03 21:24:39:504
0.350312;-11.630222;1.061683;-2.427209;-9.493096;0.400163;0.254553;-0.02004;-0.390903;-8.5879;-41.3571;1.3656;0.0;-20.7184;6.34;-35.4279;67.0733;75.4723;80.6381;0.0;55.8962;12.846286;77.66219;;NaN;;926.0;;0 / 0;4737;2017-10-03 21:24:39:515
0.350312;-11.630222;1.061683;-2.427209;-9.493096;0.400163;0.254553;-0.02004;-0.390903;-8.5879;-41.3571;1.3656;0.0;-20.7184;6.34;-35.4279;67.0733;75.4723;80.6381;0.0;55.8962;12.846286;77.66219;;NaN;;926.0;;0 / 0;4747;2017-10-03 21:24:39:525
-1.587875;-11.667316;0.402457;-2.336302;-9.51629;0.39027;1.56791;0.184971;0.472092;-0.1416;7.2468;-7.3491;0.0;-20.7184;6.34;-35.4279;67.0733;75.4723;80.6381;0.0;55.8962;12.846286;77.66219;;NaN;;926.0;;0 / 0;4756;2017-10-03 21:24:39:534
-1.587875;-11.667316;0.402457;-2.336302;-9.51629;0.39027;1.56791;0.184971;0.472092;-0.1416;7.2468;-7.3491;0.0;-20.7382;6.3248;-35.3836;67.2167;76.0227;80.5165;0.0;55.8962;12.846286;77.66219;;NaN;;926.0;;0 / 0;4767;2017-10-03 21:24:39:545
-1.587875;-11.667316;0.402457;-2.336302;-9.51629;0.39027;1.56791;0.184971;0.472092;-0.1416;7.2468;-7.3491;0.0;-20.7382;6.3248;-35.3836;67.2167;76.0227;80.5165;0.0;55.8962;12.846286;77.66219;;NaN;;926.0;;0 / 0;4776;2017-10-03 21:24:39:554
-1.587875;-11.667316;0.402457;-2.336302;-9.51629;0.39027;1.56791;0.184971;0.472092;-0.1416;7.2468;-7.3491;0.0;-20.7382;6.3248;-35.3836;67.2167;76.0227;80.5165;0.0;55.8962;12.846286;77.66219;;NaN;;926.0;;0 / 0;4786;2017-10-03 21:24:39:564
-0.104324;-11.764226;0.743445;-2.336302;-9.51629;0.39027;1.56791;0.184971;0.472092;-0.1416;7.2468;-7.3491;0.0;-20.7382;6.3248;-35.3836;67.2167;76.0227;80.5165;0.0;55.8962;12.846286;77.66219;;NaN;;926.0;;0 / 0;4796;2017-10-03 21:24:39:574
-0.104324;-11.764226;0.743445;-2.336302;-9.51629;0.39027;1.56791;0.184971;0.472092;-0.1416;7.2468;-7.3491;0.0;-20.7382;6.3248;-35.3836;67.2167;76.0227;80.5165;0.0;55.8962;12.846286;77.66219;;NaN;;926.0;;0 / 0;4806;2017-10-03 21:24:39:584
-0.104324;-11.764226;0.743445;-2.321396;-9.521048;0.362117;-0.173944;0.118057;-0.067333;-3.7349;-3.5513;-1.7896;0.0;-20.7382;6.3248;-35.3836;67.2167;76.0227;80.5165;0.0;55.8962;12.846286;77.66219;;NaN;;926.0;;0 / 0;4817;2017-10-03 21:24:39:595
-0.167724;-11.718754;0.852317;-2.321396;-9.521048;0.362117;-0.173944;0.118057;-0.067333;-3.7349;-3.5513;-1.7896;0.0;-20.7382;6.3248;-35.3836;67.2167;76.0227;80.5165;0.0;55.8962;12.846286;77.66219;;NaN;;926.0;;0 / 0;4826;2017-10-03 21:24:39:604
-0.167724;-11.718754;0.852317;-2.321396;-9.521048;0.362117;-0.173944;0.118057;-0.067333;-3.7349;-3.5513;-1.7896;0.0;-20.3522;6.2439;-35.5606;68.4866;76.1383;81.1338;0.0;55.8962;12.846286;77.66219;;NaN;;926.0;;0 / 0;4837;2017-10-03 21:24:39:615
-0.167724;-11.718754;0.852317;-2.321396;-9.521048;0.362117;-0.173944;0.118057;-0.067333;-3.7349;-3.5513;-1.7896;0.0;-20.3522;6.2439;-35.5606;68.4866;76.1383;81.1338;0.0;55.8962;12.846286;77.66219;;NaN;;926.0;;0 / 0;4846;2017-10-03 21:24:39:624
-0.167724;-11.718754;0.852317;-2.321396;-9.521048;0.362117;-0.173944;0.118057;-0.067333;-3.7349;-3.5513;-1.7896;0.0;-20.3522;6.2439;-35.5606;68.4866;76.1383;81.1338;0.0;55.8962;12.846286;77.66219;;NaN;;926.0;;0 / 0;4857;2017-10-03 21:24:39:635
-0.02536;-11.703206;1.279426;-2.318876;-9.523688;0.304219;0.469457;0.178082;0.267982;-6.2082;1.7695;0.403;0.0;-20.3522;6.2439;-35.5606;68.4866;76.1383;81.1338;0.0;55.8962;12.846286;77.66219;;NaN;;926.0;;0 / 0;4866;2017-10-03 21:24:39:644
-0.02536;-11.703206;1.279426;-2.318876;-9.523688;0.304219;0.469457;0.178082;0.267982;-6.2082;1.7695;0.403;0.0;-20.3522;6.2439;-35.5606;68.4866;76.1383;81.1338;0.0;55.8962;12.846286;77.66219;;NaN;;926.0;;0 / 0;4877;2017-10-03 21:24:39:655
-0.02536;-11.703206;1.279426;-2.318876;-9.523688;0.304219;0.469457;0.178082;0.267982;-6.2082;1.7695;0.403;0.0;-20.3522;6.2439;-35.5606;68.4866;76.1383;81.1338;0.0;55.8962;12.846286;77.66219;;NaN;;926.0;;0 / 0;4886;2017-10-03 21:24:39:664
-0.02536;-11.703206;1.279426;-2.318876;-9.523688;0.304219;0.469457;0.178082;0.267982;-6.2082;1.7695;0.403;0.0;-20.3934;6.3248;-35.5499;67.1452;76.2028;82.5259;0.0;55.8962;12.846286;77.66219;;NaN;;926.0;;0 / 0;4897;2017-10-03 21:24:39:675
0.069169;-12.203312;1.568961;-2.318876;-9.523688;0.304219;0.469457;0.178082;0.267982;-6.2082;1.7695;0.403;0.0;-20.3934;6.3248;-35.5499;67.1452;76.2028;82.5259;0.0;55.8962;12.846286;77.66219;;NaN;;926.0;;0 / 0;4907;2017-10-03 21:24:39:685
0.069169;-12.203312;1.568961;-2.318876;-9.523688;0.304219;0.469457;0.178082;0.267982;-6.2082;1.7695;0.403;0.0;-20.3934;6.3248;-35.5499;67.1452;76.2028;82.5259;0.0;55.8962;12.846286;77.66219;;NaN;;926.0;;0 / 0;4916;2017-10-03 21:24:39:694
0.069169;-12.203312;1.568961;-2.341763;-9.517312;0.327566;1.004563;0.011929;0.481214;-1.0168;-10.6206;4.4806;0.0;-20.3934;6.3248;-35.5499;67.1452;76.2028;82.5259;0.0;62.63451;12.846286;77.66219;;NaN;;926.0;;0 / 0;4927;2017-10-03 21:24:39:705
0.069169;-12.203312;1.568961;-2.341763;-9.517312;0.327566;1.004563;0.011929;0.481214;-1.0168;-10.6206;4.4806;0.0;-20.3934;6.3248;-35.5499;67.1452;76.2028;82.5259;0.0;62.63451;12.846286;77.66219;;NaN;;926.0;;0 / 0;4936;2017-10-03 21:24:39:714
-0.525451;-11.43282;0.74224;-2.341763;-9.517312;0.327566;1.004563;0.011929;0.481214;-1.0168;-10.6206;4.4806;0.0;-20.3934;6.3248;-35.5499;67.1452;76.2028;82.5259;0.0;62.63451;12.846286;77.66219;;NaN;;926.0;;0 / 0;4946;2017-10-03 21:24:39:724
-0.525451;-11.43282;0.74224;-2.341763;-9.517312;0.327566;1.004563;0.011929;0.481214;-1.0168;-10.6206;4.4806;0.0;-20.3934;6.3248;-35.5499;67.1452;76.2028;82.5259;0.0;62.63451;12.846286;77.66219;;NaN;;926.0;;0 / 0;4956;2017-10-03 21:24:39:734
-0.525451;-11.43282;0.74224;-2.341763;-9.517312;0.327566;1.004563;0.011929;0.481214;-1.0168;-10.6206;4.4806;0.0;-20.4102;6.3828;-35.582;67.6096;76.0475;82.0371;0.0;62.63451;12.846286;77.66219;;NaN;;926.0;;0 / 0;4967;2017-10-03 21:24:39:745
