sep=;
ACCELEROMETER X (m/s²);ACCELEROMETER Y (m/s²);ACCELEROMETER Z (m/s²);GRAVITY X (m/s²);GRAVITY Y (m/s²);GRAVITY Z (m/s²);LINEAR ACCELERATION X (m/s²);LINEAR ACCELERATION Y (m/s²);LINEAR ACCELERATION Z (m/s²);GYROSCOPE X (°/s);GYROSCOPE Y (°/s);GYROSCOPE Z (°/s);LIGHT (lux);MAGNETIC FIELD X (μT);MAGNETIC FIELD Y (μT);MAGNETIC FIELD Z (μT);ORIENTATION Z (azimuth °);ORIENTATION X (pitch °);ORIENTATION Y (roll °);PROXIMITY (m);SOUND LEVEL (dB);LOCATION Latitude : ;LOCATION Longitude : ;LOCATION Altitude ( m);LOCATION Altitude-google ( m);LOCATION Speed ( Kmh);LOCATION Accuracy ( m);LOCATION ORIENTATION (°);Satellites in range;Time since start in ms ;YYYY-MO-DD HH-MI-SS_SSS
-0.072021;-0.065709;4.661689;0.977475;5.1315;8.299557;-0.422092;-0.887207;0.464994;69.6666;-58.3493;-93.9983;0.0;38.269;10.4691;-9.8267;286.5711;-27.1399;-6.1976;5.0;52.28127;12.843671;77.66302;;NaN;;25.326;;0 / 0;19;2017-10-03 21:22:45:126
4.410935;1.927516;3.995292;0.977475;5.1315;8.299557;-2.238262;-2.125451;-2.972574;50.2361;-128.0989;-79.0352;0.0;38.269;10.4691;-9.8267;286.5711;-27.1399;-6.1976;5.0;52.28127;12.843671;77.66302;;NaN;;25.326;;0 / 0;28;2017-10-03 21:22:45:135
4.410935;1.927516;3.995292;1.543745;5.636266;7.875262;-2.238262;-2.125451;-2.972574;50.2361;-128.0989;-79.0352;0.0;36.5021;11.5158;-12.645;291.0366;-31.5517;-6.717;5.0;52.28127;12.843671;77.66302;;NaN;;25.326;;0 / 0;36;2017-10-03 21:22:45:143
4.410935;1.927516;3.995292;1.543745;5.636266;7.875262;-2.238262;-2.125451;-2.972574;50.2361;-128.0989;-79.0352;0.0;36.5021;11.5158;-12.645;291.0366;-31.5517;-6.717;5.0;52.28127;12.843671;77.66302;;NaN;;25.326;;0 / 0;46;2017-10-03 21:22:45:153
4.410935;1.927516;3.995292;1.543745;5.636266;7.875262;-2.238262;-2.125451;-2.972574;50.2361;-128.0989;-79.0352;0.0;36.5021;11.5158;-12.645;291.0366;-31.5517;-6.717;5.0;52.28127;12.843671;77.66302;;NaN;;25.326;;0 / 0;57;2017-10-03 21:22:45:164
4.410935;1.927516;3.995292;1.543745;5.636266;7.875262;-2.238262;-2.125451;-2.972574;50.2361;-128.0989;-79.0352;0.0;36.5021;11.5158;-12.645;291.0366;-31.5517;-6.717;5.0;52.28127;12.843671;77.66302;;NaN;;25.326;;0 / 0;66;2017-10-03 21:22:45:173
7.06099;0.417644;7.143043;1.543745;5.636266;7.875262;-2.238262;-2.125451;-2.972574;50.2361;-128.0989;-79.0352;0.0;36.5021;11.5158;-12.645;291.0366;-31.5517;-6.717;5.0;52.28127;12.843671;77.66302;;NaN;;25.326;;0 / 0;76;2017-10-03 21:22:45:183
7.06099;0.417644;7.143043;2.136701;5.077812;8.112997;2.133982;-1.824935;-0.29426;-61.4328;-56.0517;19.0581;0.0;36.5021;11.5158;-12.645;291.0366;-31.5517;-6.717;5.0;52.28127;12.843671;77.66302;;NaN;;25.326;;0 / 0;86;2017-10-03 21:22:45:193
7.06099;0.417644;7.143043;2.136701;5.077812;8.112997;2.133982;-1.824935;-0.29426;-61.4328;-56.0517;19.0581;0.0;36.5021;11.5158;-12.645;291.0366;-31.5517;-6.717;5.0;52.28127;12.843671;77.66302;;NaN;;25.326;;0 / 0;96;2017-10-03 21:22:45:203
7.06099;0.417644;7.143043;2.136701;5.077812;8.112997;2.133982;-1.824935;-0.29426;-61.4328;-56.0517;19.0581;0.0;36.5021;11.5158;-12.645;291.0366;-31.5517;-6.717;5.0;52.28127;12.843671;77.66302;;NaN;;25.326;;0 / 0;107;2017-10-03 21:22:45:214
7.06099;0.417644;7.143043;2.136701;5.077812;8.112997;2.133982;-1.824935;-0.29426;-61.4328;-56.0517;19.0581;0.0;36.5021;11.5158;-12.645;291.0366;-31.5517;-6.717;5.0;52.28127;12.843671;77.66302;;NaN;;25.326;;0 / 0;117;2017-10-03 21:22:45:224
3.976639;0.198695;11.915534;2.136701;5.077812;8.112997;2.133982;-1.824935;-0.29426;-61.4328;-56.0517;19.0581;0.0;34.8145;12.2604;-16.1636;289.813;-31.1843;-14.7548;5.0;52.28127;12.843671;77.66302;;NaN;;25.326;;0 / 0;127;2017-10-03 21:22:45:234
3.976639;0.198695;11.915534;2.136701;5.077812;8.112997;2.133982;-1.824935;-0.29426;-61.4328;-56.0517;19.0581;0.0;34.8145;12.2604;-16.1636;289.813;-31.1843;-14.7548;5.0;52.28127;12.843671;77.66302;;NaN;;25.326;;0 / 0;136;2017-10-03 21:22:45:243
3.976639;0.198695;11.915534;1.505388;4.275378;8.696284;2.758632;-1.026608;-0.852764;-94.6242;82.1817;-2.1402;0.0;34.8145;12.2604;-16.1636;289.813;-31.1843;-14.7548;5.0;52.28127;12.843671;77.66302;;NaN;;25.326;;0 / 0;149;2017-10-03 21:22:45:256
3.976639;0.198695;11.915534;1.505388;4.275378;8.696284;2.758632;-1.026608;-0.852764;-94.6242;82.1817;-2.1402;0.0;34.8145;12.2604;-16.1636;289.813;-31.1843;-14.7548;5.0;52.28127;12.843671;77.66302;;NaN;;25.326;;0 / 0;157;2017-10-03 21:22:45:264
3.976639;0.198695;11.915534;1.505388;4.275378;8.696284;2.758632;-1.026608;-0.852764;-94.6242;82.1817;-2.1402;0.0;34.8145;12.2604;-16.1636;289.813;-31.1843;-14.7548;5.0;52.28127;12.843671;77.66302;;NaN;;25.326;;0 / 0;167;2017-10-03 21:22:45:274
3.976639;0.198695;11.915534;1.505388;4.275378;8.696284;2.758632;-1.026608;-0.852764;-94.6242;82.1817;-2.1402;0.0;34.8145;12.2604;-16.1636;289.813;-31.1843;-14.7548;5.0;52.28127;12.843671;77.66302;;NaN;;25.326;;0 / 0;176;2017-10-03 21:22:45:283
1.830277;1.722926;8.960396;1.505388;4.275378;8.696284;2.758632;-1.026608;-0.852764;-94.6242;82.1817;-2.1402;0.0;32.8262;14.7675;-18.5883;298.243;-25.8469;-9.821;5.0;52.28127;12.843671;77.66302;;NaN;;25.326;;0 / 0;187;2017-10-03 21:22:45:294
1.830277;1.722926;8.960396;1.486749;3.454794;9.056732;0.447164;-0.172347;0.86413;-98.9702;-15.9466;-44.9276;0.0;32.8262;14.7675;-18.5883;298.243;-25.8469;-9.821;5.0;52.28127;12.843671;77.66302;;NaN;;25.326;;0 / 0;196;2017-10-03 21:22:45:303
1.830277;1.722926;8.960396;1.486749;3.454794;9.056732;0.447164;-0.172347;0.86413;-98.9702;-15.9466;-44.9276;0.0;32.8262;14.7675;-18.5883;298.243;-25.8469;-9.821;5.0;52.28127;12.843671;77.66302;;NaN;;25.326;;0 / 0;206;2017-10-03 21:22:45:313
1.830277;1.722926;8.960396;1.486749;3.454794;9.056732;0.447164;-0.172347;0.86413;-98.9702;-15.9466;-44.9276;0.0;32.8262;14.7675;-18.5883;298.243;-25.8469;-9.821;5.0;52.28127;12.843671;77.66302;;NaN;;25.326;;0 / 0;216;2017-10-03 21:22:45:323
4.714829;0.629405;11.151024;1.486749;3.454794;9.056732;0.447164;-0.172347;0.86413;-98.9702;-15.9466;-44.9276;0.0;32.8262;14.7675;-18.5883;298.243;-25.8469;-9.821;5.0;52.28127;12.843671;77.66302;;NaN;;25.326;;0 / 0;227;2017-10-03 21:22:45:334
4.714829;0.629405;11.151024;1.486749;3.454794;9.056732;0.447164;-0.172347;0.86413;-98.9702;-15.9466;-44.9276;0.0;29.9866;18.9392;-20.3247;305.0296;-20.6275;-9.3225;5.0;52.28127;12.843671;77.66302;;NaN;;25.326;;0 / 0;237;2017-10-03 21:22:45:344
4.714829;0.629405;11.151024;1.486749;3.454794;9.056732;0.447164;-0.172347;0.86413;-98.9702;-15.9466;-44.9276;0.0;29.9866;18.9392;-20.3247;305.0296;-20.6275;-9.3225;5.0;52.28127;12.843671;77.66302;;NaN;;25.326;;0 / 0;246;2017-10-03 21:22:45:353
2.220307;-0.58376;11.129494;1.345662;2.687219;9.334796;0.790026;0.12639;1.266387;-90.4243;1.891;-44.9914;0.0;29.9866;18.9392;-20.3247;305.0296;-20.6275;-9.3225;5.0;52.28127;12.843671;77.66302;;NaN;;25.326;;0 / 0;256;2017-10-03 21:22:45:363
2.220307;-0.58376;11.129494;1.345662;2.687219;9.334796;0.790026;0.12639;1.266387;-90.4243;1.891;-44.9914;0.0;29.9866;18.9392;-20.3247;305.0296;-20.6275;-9.3225;5.0;52.28127;12.843671;77.66302;;NaN;;25.326;;0 / 0;266;2017-10-03 21:22:45:373
2.220307;-0.58376;11.129494;1.345662;2.687219;9.334796;0.790026;0.12639;1.266387;-90.4243;1.891;-44.9914;0.0;29.9866;18.9392;-20.3247;305.0296;-20.6275;-9.3225;5.0;52.28127;12.843671;77.66302;;NaN;;25.326;;0 / 0;276;2017-10-03 21:22:45:383
2.220307;-0.58376;11.129494;1.345662;2.687219;9.334796;0.790026;0.12639;1.266387;-90.4243;1.891;-44.9914;0.0;29.9866;18.9392;-20.3247;305.0296;-20.6275;-9.3225;5.0;52.28127;12.843671;77.66302;;NaN;;25.326;;0 / 0;287;2017-10-03 21:22:45:394
2.727585;-0.240392;13.761588;1.345662;2.687219;9.334796;0.790026;0.12639;1.266387;-90.4243;1.891;-44.9914;0.0;29.9866;18.9392;-20.3247;305.0296;-20.6275;-9.3225;5.0;52.28127;12.843671;77.66302;;NaN;;25.326;;0 / 0;296;2017-10-03 21:22:45:403
2.727585;-0.240392;13.761588;1.345662;2.687219;9.334796;0.790026;0.12639;1.266387;-90.4243;1.891;-44.9914;0.0;29.2877;23.3368;-18.7775;309.763;-15.9036;-8.203;5.0;52.28127;12.843671;77.66302;;NaN;;25.326;;0 / 0;306;2017-10-03 21:22:45:413
2.727585;-0.240392;13.761588;1.480225;2.11877;9.459924;-0.287387;0.021129;2.054538;-65.7726;-25.6186;-38.6451;0.0;29.2877;23.3368;-18.7775;309.763;-15.9036;-8.203;5.0;52.28127;12.843671;77.66302;;NaN;;25.326;;0 / 0;317;2017-10-03 21:22:45:424
2.727585;-0.240392;13.761588;1.480225;2.11877;9.459924;-0.287387;0.021129;2.054538;-65.7726;-25.6186;-38.6451;0.0;29.2877;23.3368;-18.7775;309.763;-15.9036;-8.203;5.0;52.28127;12.843671;77.66302;;NaN;;25.326;;0 / 0;327;2017-10-03 21:22:45:434
5.206559;1.554225;12.16558;1.480225;2.11877;9.459924;-0.287387;0.021129;2.054538;-65.7726;-25.6186;-38.6451;0.0;29.2877;23.3368;-18.7775;309.763;-15.9036;-8.203;5.0;59.51438;12.843671;77.66302;;NaN;;25.326;;0 / 0;336;2017-10-03 21:22:45:443
5.206559;1.554225;12.16558;1.480225;2.11877;9.459924;-0.287387;0.021129;2.054538;-65.7726;-25.6186;-38.6451;0.0;29.2877;23.3368;-18.7775;309.763;-15.9036;-8.203;5.0;59.51438;12.843671;77.66302;;NaN;;25.326;;0 / 0;347;2017-10-03 21:22:45:454
5.206559;1.554225;12.16558;1.480225;2.11877;9.459924;-0.287387;0.021129;2.054538;-65.7726;-25.6186;-38.6451;0.0;29.2877;23.3368;-18.7775;309.763;-15.9036;-8.203;5.0;59.51438;12.843671;77.66302;;NaN;;25.326;;0 / 0;357;2017-10-03 21:22:45:464
-1.982681;0.397304;3.706946;1.480225;2.11877;9.459924;-0.287387;0.021129;2.054538;14.442;-124.6281;-56.2449;0.0;26.5183;29.0298;-16.1987;316.6042;-12.4774;-8.8931;5.0;59.51438;12.843671;77.66302;;NaN;;25.326;;0 / 0;366;2017-10-03 21:22:45:473
-1.982681;0.397304;3.706946;2.515268;2.355112;9.181356;0.61294;0.321335;2.285833;14.442;-124.6281;-56.2449;0.0;26.5183;29.0298;-16.1987;316.6042;-12.4774;-8.8931;5.0;59.51438;12.843671;77.66302;;NaN;;25.326;;0 / 0;377;2017-10-03 21:22:45:484
-1.982681;0.397304;3.706946;2.515268;2.355112;9.181356;0.61294;0.321335;2.285833;14.442;-124.6281;-56.2449;0.0;26.5183;29.0298;-16.1987;316.6042;-12.4774;-8.8931;5.0;59.51438;12.843671;77.66302;;NaN;;25.326;;0 / 0;387;2017-10-03 21:22:45:494
-1.982681;0.397304;3.706946;2.515268;2.355112;9.181356;0.61294;0.321335;2.285833;14.442;-124.6281;-56.2449;0.0;26.5183;29.0298;-16.1987;316.6042;-12.4774;-8.8931;5.0;59.51438;12.843671;77.66302;;NaN;;25.326;;0 / 0;396;2017-10-03 21:22:45:503
-1.982681;0.397304;3.706946;2.515268;2.355112;9.181356;0.61294;0.321335;2.285833;14.442;-124.6281;-56.2449;0.0;26.5183;29.0298;-16.1987;316.6042;-12.4774;-8.8931;5.0;59.51438;12.843671;77.66302;;NaN;;25.326;;0 / 0;407;2017-10-03 21:22:45:514
-1.982681;0.397304;3.706946;2.515268;2.355112;9.181356;0.61294;0.321335;2.285833;14.442;-124.6281;-56.2449;0.0;26.5183;29.0298;-16.1987;316.6042;-12.4774;-8.8931;5.0;59.51438;12.843671;77.66302;;NaN;;25.326;;0 / 0;416;2017-10-03 21:22:45:523
-1.982681;0.397304;3.706946;2.515268;2.355112;9.181356;0.61294;0.321335;2.285833;14.442;-124.6281;-56.2449;0.0;26.5183;29.0298;-16.1987;316.6042;-12.4774;-8.8931;5.0;59.51438;12.843671;77.66302;;NaN;;25.326;;0 / 0;426;2017-10-03 21:22:45:533
-1.982681;0.397304;3.706946;2.515268;2.355112;9.181356;0.61294;0.321335;2.285833;14.442;-124.6281;-56.2449;0.0;26.5183;29.0298;-16.1987;316.6042;-12.4774;-8.8931;5.0;59.51438;12.843671;77.66302;;NaN;;25.326;;0 / 0;436;2017-10-03 21:22:45:543
4.439652;-0.91158;4.219016;2.621209;1.805149;9.275834;-2.658351;-0.246954;-2.907293;-84.1654;-34.1182;-79.8055;0.0;21.3058;32.515;-17.4576;324.1735;-10.6071;-15.7795;5.0;59.51438;12.843671;77.66302;;NaN;;25.326;;0 / 0;448;2017-10-03 21:22:45:555
4.439652;-0.91158;4.219016;2.621209;1.805149;9.275834;-2.658351;-0.246954;-2.907293;-84.1654;-34.1182;-79.8055;0.0;21.3058;32.515;-17.4576;324.1735;-10.6071;-15.7795;5.0;59.51438;12.843671;77.66302;;NaN;;25.326;;0 / 0;457;2017-10-03 21:22:45:564
4.439652;-0.91158;4.219016;2.621209;1.805149;9.275834;-2.658351;-0.246954;-2.907293;-84.1654;-34.1182;-79.8055;0.0;21.3058;32.515;-17.4576;324.1735;-10.6071;-15.7795;5.0;59.51438;12.843671;77.66302;;NaN;;25.326;;0 / 0;466;2017-10-03 21:22:45:573
4.439652;-0.91158;4.219016;2.621209;1.805149;9.275834;-2.658351;-0.246954;-2.907293;-84.1654;-34.1182;-79.8055;0.0;21.3058;32.515;-17.4576;324.1735;-10.6071;-15.7795;5.0;59.51438;12.843671;77.66302;;NaN;;25.326;;0 / 0;476;2017-10-03 21:22:45:583
2.671357;-1.394917;9.349236;3.485145;1.456658;9.04999;-1.331125;-0.286896;0.203766;-55.0856;-107.1052;-54.1449;0.0;21.3058;32.515;-17.4576;324.1735;-10.6071;-15.7795;5.0;59.51438;12.843671;77.66302;;NaN;;25.326;;0 / 0;487;2017-10-03 21:22:45:594
2.671357;-1.394917;9.349236;3.485145;1.456658;9.04999;-1.331125;-0.286896;0.203766;-55.0856;-107.1052;-54.1449;0.0;21.3058;32.515;-17.4576;324.1735;-10.6071;-15.7795;5.0;59.51438;12.843671;77.66302;;NaN;;25.326;;0 / 0;496;2017-10-03 21:22:45:603
2.671357;-1.394917;9.349236;3.485145;1.456658;9.04999;-1.331125;-0.286896;0.203766;-55.0856;-107.1052;-54.1449;0.0;19.0872;33.7235;-17.9596;325.4188;-8.5422;-21.0617;5.0;59.51438;12.843671;77.66302;;NaN;;25.326;;0 / 0;506;2017-10-03 21:22:45:613
2.671357;-1.394917;9.349236;3.485145;1.456658;9.04999;-1.331125;-0.286896;0.203766;-55.0856;-107.1052;-54.1449;0.0;19.0872;33.7235;-17.9596;325.4188;-8.5422;-21.0617;5.0;59.51438;12.843671;77.66302;;NaN;;25.326;;0 / 0;516;2017-10-03 21:22:45:623
0.061982;-1.890233;11.566184;3.485145;1.456658;9.04999;-1.331125;-0.286896;0.203766;-55.0856;-107.1052;-54.1449;0.0;19.0872;33.7235;-17.9596;325.4188;-8.5422;-21.0617;5.0;59.51438;12.843671;77.66302;;NaN;;25.326;;0 / 0;527;2017-10-03 21:22:45:634
0.061982;-1.890233;11.566184;5.659019;1.877997;7.785823;-3.474182;-0.701138;1.465957;53.6073;-263.3231;0.8236;0.0;19.0872;33.7235;-17.9596;325.4188;-8.5422;-21.0617;5.0;59.51438;12.843671;77.66302;;NaN;;25.326;;0 / 0;536;2017-10-03 21:22:45:643
0.061982;-1.890233;11.566184;5.659019;1.877997;7.785823;-3.474182;-0.701138;1.465957;53.6073;-263.3231;0.8236;0.0;19.0872;33.7235;-17.9596;325.4188;-8.5422;-21.0617;5.0;59.51438;12.843671;77.66302;;NaN;;25.326;;0 / 0;546;2017-10-03 21:22:45:653
10.827288;-4.437398;0.755408;5.659019;1.877997;7.785823;-3.474182;-0.701138;1.465957;53.6073;-263.3231;0.8236;0.0;19.0872;33.7235;-17.9596;325.4188;-8.5422;-21.0617;5.0;59.51438;12.843671;77.66302;;NaN;;25.326;;0 / 0;557;2017-10-03 21:22:45:664
10.827288;-4.437398;0.755408;5.659019;1.877997;7.785823;-3.474182;-0.701138;1.465957;53.6073;-263.3231;0.8236;0.0;10.997;34.2545;-22.3618;328.4372;-11.0405;-36.011;5.0;59.51438;12.843671;77.66302;;NaN;;25.326;;0 / 0;566;2017-10-03 21:22:45:673
10.827288;-4.437398;0.755408;5.659019;1.877997;7.785823;-3.474182;-0.701138;1.465957;53.6073;-263.3231;0.8236;0.0;10.997;34.2545;-22.3618;328.4372;-11.0405;-36.011;5.0;59.51438;12.843671;77.66302;;NaN;;25.326;;0 / 0;578;2017-10-03 21:22:45:685
10.827288;-4.437398;0.755408;5.659019;1.877997;7.785823;-3.474182;-0.701138;1.465957;53.6073;-263.3231;0.8236;0.0;10.997;34.2545;-22.3618;328.4372;-11.0405;-36.011;5.0;59.51438;12.843671;77.66302;;NaN;;25.326;;0 / 0;586;2017-10-03 21:22:45:693
3.336564;-3.312779;5.281425;7.48816;2.066686;5.985538;-4.959424;-2.12368;1.531914;81.3686;-256.9996;50.0394;0.0;10.997;34.2545;-22.3618;328.4372;-11.0405;-36.011;5.0;59.51438;12.843671;77.66302;;NaN;;25.326;;0 / 0;596;2017-10-03 21:22:45:703
3.336564;-3.312779;5.281425;7.48816;2.066686;5.985538;-4.959424;-2.12368;1.531914;81.3686;-256.9996;50.0394;0.0;10.997;34.2545;-22.3618;328.4372;-11.0405;-36.011;5.0;59.51438;12.843671;77.66302;;NaN;;25.326;;0 / 0;607;2017-10-03 21:22:45:714
3.336564;-3.312779;5.281425;7.48816;2.066686;5.985538;-4.959424;-2.12368;1.531914;81.3686;-256.9996;50.0394;0.0;10.997;34.2545;-22.3618;328.4372;-11.0405;-36.011;5.0;59.51438;12.843671;77.66302;;NaN;;25.326;;0 / 0;616;2017-10-03 21:22:45:723
3.336564;-3.312779;5.281425;7.48816;2.066686;5.985538;-4.959424;-2.12368;1.531914;81.3686;-256.9996;50.0394;0.0;10.997;34.2545;-22.3618;328.4372;-11.0405;-36.011;5.0;59.51438;12.843671;77.66302;;NaN;;25.326;;0 / 0;627;2017-10-03 21:22:45:734
6.391007;-2.517156;4.204658;7.48816;2.066686;5.985538;-4.959424;-2.12368;1.531914;81.3686;-256.9996;50.0394;0.0;10.3882;33.2718;-23.2422;324.258;-12.1659;-51.3635;5.0;51.37198;12.843671;77.66302;;NaN;;25.326;;0 / 0;636;2017-10-03 21:22:45:743
6.391007;-2.517156;4.204658;7.48816;2.066686;5.985538;-4.959424;-2.12368;1.531914;81.3686;-256.9996;50.0394;0.0;10.3882;33.2718;-23.2422;324.258;-12.1659;-51.3635;5.0;51.37198;12.843671;77.66302;;NaN;;25.326;;0 / 0;646;2017-10-03 21:22:45:753
6.391007;-2.517156;4.204658;7.995364;1.080011;5.574775;-3.811653;-1.979119;-1.678323;-30.0082;-61.0385;101.4785;0.0;10.3882;33.2718;-23.2422;324.258;-12.1659;-51.3635;5.0;51.37198;12.843671;77.66302;;NaN;;25.326;;0 / 0;656;2017-10-03 21:22:45:763
6.391007;-2.517156;4.204658;7.995364;1.080011;5.574775;-3.811653;-1.979119;-1.678323;-30.0082;-61.0385;101.4785;0.0;10.3882;33.2718;-23.2422;324.258;-12.1659;-51.3635;5.0;51.37198;12.843671;77.66302;;NaN;;25.326;;0 / 0;667;2017-10-03 21:22:45:774
6.391007;-2.517156;4.204658;7.995364;1.080011;5.574775;-3.811653;-1.979119;-1.678323;-30.0082;-61.0385;101.4785;0.0;10.3882;33.2718;-23.2422;324.258;-12.1659;-51.3635;5.0;51.37198;12.843671;77.66302;;NaN;;25.326;;0 / 0;677;2017-10-03 21:22:45:784
8.709642;-5.478276;9.10276;7.995364;1.080011;5.574775;-3.811653;-1.979119;-1.678323;-30.0082;-61.0385;101.4785;0.0;10.3882;33.2718;-23.2422;324.258;-12.1659;-51.3635;5.0;51.37198;12.843671;77.66302;;NaN;;25.326;;0 / 0;690;2017-10-03 21:22:45:797
8.709642;-5.478276;9.10276;7.995364;1.080011;5.574775;-3.811653;-1.979119;-1.678323;-30.0082;-61.0385;101.4785;0.0;10.3882;33.2718;-23.2422;324.258;-12.1659;-51.3635;5.0;51.37198;12.843671;77.66302;;NaN;;25.326;;0 / 0;696;2017-10-03 21:22:45:803
7.806351;-5.009282;12.159598;7.995364;1.080011;5.574775;-3.811653;-1.979119;-1.678323;-30.0082;-61.0385;101.4785;0.0;9.9548;32.1106;-25.3815;321.0772;-6.3228;-55.1138;5.0;51.37198;12.843671;77.66302;;NaN;;25.326;;0 / 0;707;2017-10-03 21:22:45:814
7.806351;-5.009282;12.159598;7.995364;1.080011;5.574775;-3.811653;-1.979119;-1.678323;-30.0082;-61.0385;101.4785;0.0;9.9548;32.1106;-25.3815;321.0772;-6.3228;-55.1138;5.0;51.37198;12.843671;77.66302;;NaN;;25.326;;0 / 0;717;2017-10-03 21:22:45:824
7.806351;-5.009282;12.159598;8.480484;-0.402033;4.908173;-2.109506;-1.363597;2.014112;-72.2999;-89.4941;131.0767;0.0;9.9548;32.1106;-25.3815;321.0772;-6.3228;-55.1138;5.0;51.37198;12.843671;77.66302;;NaN;;25.326;;0 / 0;727;2017-10-03 21:22:45:834
7.806351;-5.009282;12.159598;8.480484;-0.402033;4.908173;-2.109506;-1.363597;2.014112;-72.2999;-89.4941;131.0767;0.0;9.9548;32.1106;-25.3815;321.0772;-6.3228;-55.1138;5.0;51.37198;12.843671;77.66302;;NaN;;25.326;;0 / 0;736;2017-10-03 21:22:45:843
7.806351;-5.009282;12.159598;8.480484;-0.402033;4.908173;-2.109506;-1.363597;2.014112;-72.2999;-89.4941;131.0767;0.0;9.9548;32.1106;-25.3815;321.0772;-6.3228;-55.1138;5.0;51.37198;12.843671;77.66302;;NaN;;25.326;;0 / 0;747;2017-10-03 21:22:45:854
7.806351;-5.009282;12.159598;8.480484;-0.402033;4.908173;-2.109506;-1.363597;2.014112;-72.2999;-89.4941;131.0767;0.0;9.9548;32.1106;-25.3815;321.0772;-6.3228;-55.1138;5.0;51.37198;12.843671;77.66302;;NaN;;25.326;;0 / 0;757;2017-10-03 21:22:45:864
7.806351;-5.009282;12.159598;8.480484;-0.402033;4.908173;-2.109506;-1.363597;2.014112;-72.2999;-89.4941;131.0767;0.0;9.9548;32.1106;-25.3815;321.0772;-6.3228;-55.1138;5.0;51.37198;12.843671;77.66302;;NaN;;25.326;;0 / 0;768;2017-10-03 21:22:45:875
7.806351;-5.009282;12.159598;8.480484;-0.402033;4.908173;-2.109506;-1.363597;2.014112;-72.2999;-89.4941;131.0767;0.0;9.9548;32.1106;-25.3815;321.0772;-6.3228;-55.1138;5.0;51.37198;12.843671;77.66302;;NaN;;25.326;;0 / 0;776;2017-10-03 21:22:45:883
7.806351;-5.009282;12.159598;8.480484;-0.402033;4.908173;-2.109506;-1.363597;2.014112;-72.2999;-89.4941;131.0767;0.0;9.9548;32.1106;-25.3815;321.0772;-6.3228;-55.1138;5.0;51.37198;12.843671;77.66302;;NaN;;25.326;;0 / 0;787;2017-10-03 21:22:45:894
7.806351;-5.009282;12.159598;8.480484;-0.402033;4.908173;-2.109506;-1.363597;2.014112;-72.2999;-89.4941;131.0767;0.0;9.9548;32.1106;-25.3815;321.0772;-6.3228;-55.1138;5.0;51.37198;12.843671;77.66302;;NaN;;25.326;;0 / 0;797;2017-10-03 21:22:45:904
7.806351;-5.009282;12.159598;8.480484;-0.402033;4.908173;-2.109506;-1.363597;2.014112;-72.2999;-89.4941;131.0767;0.0;9.9548;32.1106;-25.3815;321.0772;-6.3228;-55.1138;5.0;51.37198;12.843671;77.66302;;NaN;;25.326;;0 / 0;809;2017-10-03 21:22:45:916
7.806351;-5.009282;12.159598;8.480484;-0.402033;4.908173;-2.109506;-1.363597;2.014112;-72.2999;-89.4941;131.0767;0.0;9.9548;32.1106;-25.3815;321.0772;-6.3228;-55.1138;5.0;51.37198;12.843671;77.66302;;NaN;;25.326;;0 / 0;817;2017-10-03 21:22:45:924
7.806351;-5.009282;12.159598;8.480484;-0.402033;4.908173;-2.109506;-1.363597;2.014112;-72.2999;-89.4941;131.0767;0.0;9.9548;32.1106;-25.3815;321.0772;-6.3228;-55.1138;5.0;51.37198;12.843671;77.66302;;NaN;;25.326;;0 / 0;826;2017-10-03 21:22:45:933
7.806351;-5.009282;12.159598;8.480484;-0.402033;4.908173;-2.109506;-1.363597;2.014112;-72.2999;-89.4941;131.0767;0.0;9.9548;32.1106;-25.3815;321.0772;-6.3228;-55.1138;5.0;51.37198;12.843671;77.66302;;NaN;;25.326;;0 / 0;837;2017-10-03 21:22:45:944
7.806351;-5.009282;12.159598;8.480484;-0.402033;4.908173;-2.109506;-1.363597;2.014112;-72.2999;-89.4941;131.0767;0.0;9.9548;32.1106;-25.3815;321.0772;-6.3228;-55.1138;5.0;51.37198;12.843671;77.66302;;NaN;;25.326;;0 / 0;846;2017-10-03 21:22:45:953
7.806351;-5.009282;12.159598;8.480484;-0.402033;4.908173;-2.109506;-1.363597;2.014112;-72.2999;-89.4941;131.0767;0.0;9.9548;32.1106;-25.3815;321.0772;-6.3228;-55.1138;5.0;51.37198;12.843671;77.66302;;NaN;;25.326;;0 / 0;864;2017-10-03 21:22:45:971
7.806351;-5.009282;12.159598;8.480484;-0.402033;4.908173;-2.109506;-1.363597;2.014112;-72.2999;-89.4941;131.0767;0.0;9.9548;32.1106;-25.3815;321.0772;-6.3228;-55.1138;5.0;51.37198;12.843671;77.66302;;NaN;;25.326;;0 / 0;866;2017-10-03 21:22:45:973
7.806351;-5.009282;12.159598;8.480484;-0.402033;4.908173;-2.109506;-1.363597;2.014112;-72.2999;-89.4941;131.0767;0.0;9.9548;32.1106;-25.3815;321.0772;-6.3228;-55.1138;5.0;51.37198;12.843671;77.66302;;NaN;;25.326;;0 / 0;876;2017-10-03 21:22:45:983
7.806351;-5.009282;12.159598;8.480484;-0.402033;4.908173;-2.109506;-1.363597;2.014112;-72.2999;-89.4941;131.0767;0.0;9.9548;32.1106;-25.3815;321.0772;-6.3228;-55.1138;5.0;51.37198;12.843671;77.66302;;NaN;;25.326;;0 / 0;887;2017-10-03 21:22:45:994
7.806351;-5.009282;12.159598;8.480484;-0.402033;4.908173;-2.109506;-1.363597;2.014112;-72.2999;-89.4941;131.0767;0.0;9.9548;32.1106;-25.3815;321.0772;-6.3228;-55.1138;5.0;51.37198;12.843671;77.66302;;NaN;;25.326;;0 / 0;897;2017-10-03 21:22:46:004
7.806351;-5.009282;12.159598;8.480484;-0.402033;4.908173;-2.109506;-1.363597;2.014112;-72.2999;-89.4941;131.0767;0.0;9.9548;32.1106;-25.3815;321.0772;-6.3228;-55.1138;5.0;51.37198;12.843671;77.66302;;NaN;;25.326;;0 / 0;906;2017-10-03 21:22:46:013
7.806351;-5.009282;12.159598;8.480484;-0.402033;4.908173;-2.109506;-1.363597;2.014112;-72.2999;-89.4941;131.0767;0.0;9.9548;32.1106;-25.3815;321.0772;-6.3228;-55.1138;5.0;51.37198;12.843671;77.66302;;NaN;;25.326;;0 / 0;917;2017-10-03 21:22:46:024
7.806351;-5.009282;12.159598;8.480484;-0.402033;4.908173;-2.109506;-1.363597;2.014112;-72.2999;-89.4941;131.0767;0.0;9.9548;32.1106;-25.3815;321.0772;-6.3228;-55.1138;5.0;51.37198;12.843671;77.66302;;NaN;;25.326;;0 / 0;933;2017-10-03 21:22:46:040
7.806351;-5.009282;12.159598;8.480484;-0.402033;4.908173;-2.109506;-1.363597;2.014112;-72.2999;-89.4941;131.0767;0.0;9.9548;32.1106;-25.3815;321.0772;-6.3228;-55.1138;5.0;51.37198;12.843671;77.66302;;NaN;;25.326;;0 / 0;939;2017-10-03 21:22:46:046
7.806351;-5.009282;12.159598;8.480484;-0.402033;4.908173;-2.109506;-1.363597;2.014112;-72.2999;-89.4941;131.0767;0.0;9.9548;32.1106;-25.3815;321.0772;-6.3228;-55.1138;5.0;51.37198;12.843671;77.66302;;NaN;;25.326;;0 / 0;946;2017-10-03 21:22:46:053
7.806351;-5.009282;12.159598;8.480484;-0.402033;4.908173;-2.109506;-1.363597;2.014112;-72.2999;-89.4941;131.0767;0.0;9.9548;32.1106;-25.3815;321.0772;-6.3228;-55.1138;5.0;51.37198;12.843671;77.66302;;NaN;;25.326;;0 / 0;956;2017-10-03 21:22:46:063
7.806351;-5.009282;12.159598;8.480484;-0.402033;4.908173;-2.109506;-1.363597;2.014112;-72.2999;-89.4941;131.0767;0.0;9.9548;32.1106;-25.3815;321.0772;-6.3228;-55.1138;5.0;51.37198;12.843671;77.66302;;NaN;;25.326;;0 / 0;990;2017-10-03 21:22:46:097
7.806351;-5.009282;12.159598;8.480484;-0.402033;4.908173;-2.109506;-1.363597;2.014112;-72.2999;-89.4941;131.0767;0.0;9.9548;32.1106;-25.3815;321.0772;-6.3228;-55.1138;5.0;51.37198;12.843671;77.66302;;NaN;;25.326;;0 / 0;991;2017-10-03 21:22:46:098
7.806351;-5.009282;12.159598;8.480484;-0.402033;4.908173;-2.109506;-1.363597;2.014112;-72.2999;-89.4941;131.0767;0.0;9.9548;32.1106;-25.3815;321.0772;-6.3228;-55.1138;5.0;51.37198;12.843671;77.66302;;NaN;;25.326;;0 / 0;992;2017-10-03 21:22:46:099
7.806351;-5.009282;12.159598;8.480484;-0.402033;4.908173;-2.109506;-1.363597;2.014112;-72.2999;-89.4941;131.0767;0.0;9.9548;32.1106;-25.3815;321.0772;-6.3228;-55.1138;5.0;51.37198;12.843671;77.66302;;NaN;;25.326;;0 / 0;1005;2017-10-03 21:22:46:112
7.806351;-5.009282;12.159598;8.480484;-0.402033;4.908173;-2.109506;-1.363597;2.014112;-72.2999;-89.4941;131.0767;0.0;9.9548;32.1106;-25.3815;321.0772;-6.3228;-55.1138;5.0;51.37198;12.843671;77.66302;;NaN;;25.326;;0 / 0;1008;2017-10-03 21:22:46:115
7.806351;-5.009282;12.159598;8.480484;-0.402033;4.908173;-2.109506;-1.363597;2.014112;-72.2999;-89.4941;131.0767;0.0;9.9548;32.1106;-25.3815;321.0772;-6.3228;-55.1138;5.0;51.37198;12.843671;77.66302;;NaN;;25.326;;0 / 0;1040;2017-10-03 21:22:46:147
7.806351;-5.009282;12.159598;8.480484;-0.402033;4.908173;-2.109506;-1.363597;2.014112;-72.2999;-89.4941;131.0767;0.0;9.9548;32.1106;-25.3815;321.0772;-6.3228;-55.1138;5.0;51.37198;12.843671;77.66302;;NaN;;25.326;;0 / 0;1042;2017-10-03 21:22:46:149
7.806351;-5.009282;12.159598;8.480484;-0.402033;4.908173;-2.109506;-1.363597;2.014112;-72.2999;-89.4941;131.0767;0.0;9.9548;32.1106;-25.3815;321.0772;-6.3228;-55.1138;5.0;51.37198;12.843671;77.66302;;NaN;;25.326;;0 / 0;1045;2017-10-03 21:22:46:152
7.806351;-5.009282;12.159598;8.480484;-0.402033;4.908173;-2.109506;-1.363597;2.014112;-72.2999;-89.4941;131.0767;0.0;9.9548;32.1106;-25.3815;321.0772;-6.3228;-55.1138;5.0;51.37198;12.843671;77.66302;;NaN;;25.326;;0 / 0;1059;2017-10-03 21:22:46:166
7.806351;-5.009282;12.159598;8.480484;-0.402033;4.908173;-2.109506;-1.363597;2.014112;-72.2999;-89.4941;131.0767;0.0;9.9548;32.1106;-25.3815;321.0772;-6.3228;-55.1138;5.0;51.37198;12.843671;77.66302;;NaN;;25.326;;0 / 0;1060;2017-10-03 21:22:46:167
7.806351;-5.009282;12.159598;8.480484;-0.402033;4.908173;-2.109506;-1.363597;2.014112;-72.2999;-89.4941;131.0767;0.0;9.9548;32.1106;-25.3815;321.0772;-6.3228;-55.1138;5.0;51.37198;12.843671;77.66302;;NaN;;25.326;;0 / 0;1068;2017-10-03 21:22:46:175
7.806351;-5.009282;12.159598;8.480484;-0.402033;4.908173;-2.109506;-1.363597;2.014112;-72.2999;-89.4941;131.0767;0.0;9.9548;32.1106;-25.3815;321.0772;-6.3228;-55.1138;5.0;51.37198;12.843671;77.66302;;NaN;;25.326;;0 / 0;1076;2017-10-03 21:22:46:183
7.806351;-5.009282;12.159598;8.480484;-0.402033;4.908173;-2.109506;-1.363597;2.014112;-72.2999;-89.4941;131.0767;0.0;9.9548;32.1106;-25.3815;321.0772;-6.3228;-55.1138;5.0;51.37198;12.843671;77.66302;;NaN;;25.326;;0 / 0;1086;2017-10-03 21:22:46:193
7.806351;-5.009282;12.159598;8.480484;-0.402033;4.908173;-2.109506;-1.363597;2.014112;-72.2999;-89.4941;131.0767;0.0;9.9548;32.1106;-25.3815;321.0772;-6.3228;-55.1138;5.0;51.37198;12.843671;77.66302;;NaN;;25.326;;0 / 0;1106;2017-10-03 21:22:46:213
7.806351;-5.009282;12.159598;8.480484;-0.402033;4.908173;-2.109506;-1.363597;2.014112;-72.2999;-89.4941;131.0767;0.0;9.9548;32.1106;-25.3815;321.0772;-6.3228;-55.1138;5.0;51.37198;12.843671;77.66302;;NaN;;25.326;;0 / 0;1107;2017-10-03 21:22:46:214
7.806351;-5.009282;12.159598;8.480484;-0.402033;4.908173;-2.109506;-1.363597;2.014112;-72.2999;-89.4941;131.0767;0.0;9.9548;32.1106;-25.3815;321.0772;-6.3228;-55.1138;5.0;51.37198;12.843671;77.66302;;NaN;;25.326;;0 / 0;1116;2017-10-03 21:22:46:223
7.806351;-5.009282;12.159598;8.480484;-0.402033;4.908173;-2.109506;-1.363597;2.014112;-72.2999;-89.4941;131.0767;0.0;9.9548;32.1106;-25.3815;321.0772;-6.3228;-55.1138;5.0;51.37198;12.843671;77.66302;;NaN;;25.326;;0 / 0;1126;2017-10-03 21:22:46:233
7.806351;-5.009282;12.159598;8.480484;-0.402033;4.908173;-2.109506;-1.363597;2.014112;-72.2999;-89.4941;131.0767;0.0;9.9548;32.1106;-25.3815;321.0772;-6.3228;-55.1138;5.0;51.37198;12.843671;77.66302;;NaN;;25.326;;0 / 0;1136;2017-10-03 21:22:46:243
7.806351;-5.009282;12.159598;8.480484;-0.402033;4.908173;-2.109506;-1.363597;2.014112;-72.2999;-89.4941;131.0767;0.0;9.9548;32.1106;-25.3815;321.0772;-6.3228;-55.1138;5.0;51.37198;12.843671;77.66302;;NaN;;25.326;;0 / 0;1146;2017-10-03 21:22:46:253
7.806351;-5.009282;12.159598;8.480484;-0.402033;4.908173;-2.109506;-1.363597;2.014112;-72.2999;-89.4941;131.0767;0.0;9.9548;32.1106;-25.3815;321.0772;-6.3228;-55.1138;5.0;51.37198;12.843671;77.66302;;NaN;;25.326;;0 / 0;1156;2017-10-03 21:22:46:263
7.806351;-5.009282;12.159598;8.480484;-0.402033;4.908173;-2.109506;-1.363597;2.014112;-72.2999;-89.4941;131.0767;0.0;9.9548;32.1106;-25.3815;321.0772;-6.3228;-55.1138;5.0;51.37198;12.843671;77.66302;;NaN;;25.326;;0 / 0;1167;2017-10-03 21:22:46:274
7.806351;-5.009282;12.159598;8.480484;-0.402033;4.908173;-2.109506;-1.363597;2.014112;-72.2999;-89.4941;131.0767;0.0;9.9548;32.1106;-25.3815;321.0772;-6.3228;-55.1138;5.0;51.37198;12.843671;77.66302;;NaN;;25.326;;0 / 0;1177;2017-10-03 21:22:46:284
7.806351;-5.009282;12.159598;8.480484;-0.402033;4.908173;-2.109506;-1.363597;2.014112;-72.2999;-89.4941;131.0767;0.0;9.9548;32.1106;-25.3815;321.0772;-6.3228;-55.1138;5.0;51.37198;12.843671;77.66302;;NaN;;25.326;;0 / 0;1187;2017-10-03 21:22:46:294
7.806351;-5.009282;12.159598;8.480484;-0.402033;4.908173;-2.109506;-1.363597;2.014112;-72.2999;-89.4941;131.0767;0.0;9.9548;32.1106;-25.3815;321.0772;-6.3228;-55.1138;5.0;51.37198;12.843671;77.66302;;NaN;;25.326;;0 / 0;1196;2017-10-03 21:22:46:303
7.806351;-5.009282;12.159598;8.480484;-0.402033;4.908173;-2.109506;-1.363597;2.014112;-72.2999;-89.4941;131.0767;0.0;9.9548;32.1106;-25.3815;321.0772;-6.3228;-55.1138;5.0;51.37198;12.843671;77.66302;;NaN;;25.326;;0 / 0;1206;2017-10-03 21:22:46:313
7.806351;-5.009282;12.159598;8.480484;-0.402033;4.908173;-2.109506;-1.363597;2.014112;-72.2999;-89.4941;131.0767;0.0;9.9548;32.1106;-25.3815;321.0772;-6.3228;-55.1138;5.0;51.37198;12.843671;77.66302;;NaN;;25.326;;0 / 0;1216;2017-10-03 21:22:46:323
7.806351;-5.009282;12.159598;8.480484;-0.402033;4.908173;-2.109506;-1.363597;2.014112;-72.2999;-89.4941;131.0767;0.0;9.9548;32.1106;-25.3815;321.0772;-6.3228;-55.1138;5.0;51.37198;12.843671;77.66302;;NaN;;25.326;;0 / 0;1226;2017-10-03 21:22:46:333
7.806351;-5.009282;12.159598;8.480484;-0.402033;4.908173;-2.109506;-1.363597;2.014112;-72.2999;-89.4941;131.0767;0.0;9.9548;32.1106;-25.3815;321.0772;-6.3228;-55.1138;5.0;51.37198;12.843671;77.66302;;NaN;;25.326;;0 / 0;1236;2017-10-03 21:22:46:343
7.806351;-5.009282;12.159598;8.480484;-0.402033;4.908173;-2.109506;-1.363597;2.014112;-72.2999;-89.4941;131.0767;0.0;9.9548;32.1106;-25.3815;321.0772;-6.3228;-55.1138;5.0;51.37198;12.843671;77.66302;;NaN;;25.326;;0 / 0;1246;2017-10-03 21:22:46:353
7.806351;-5.009282;12.159598;8.480484;-0.402033;4.908173;-2.109506;-1.363597;2.014112;-72.2999;-89.4941;131.0767;0.0;9.9548;32.1106;-25.3815;321.0772;-6.3228;-55.1138;5.0;51.37198;12.843671;77.66302;;NaN;;25.326;;0 / 0;1256;2017-10-03 21:22:46:363
7.806351;-5.009282;12.159598;8.480484;-0.402033;4.908173;-2.109506;-1.363597;2.014112;-72.2999;-89.4941;131.0767;0.0;9.9548;32.1106;-25.3815;321.0772;-6.3228;-55.1138;5.0;51.37198;12.843671;77.66302;;NaN;;25.326;;0 / 0;1266;2017-10-03 21:22:46:373
7.806351;-5.009282;12.159598;8.480484;-0.402033;4.908173;-2.109506;-1.363597;2.014112;-72.2999;-89.4941;131.0767;0.0;9.9548;32.1106;-25.3815;321.0772;-6.3228;-55.1138;5.0;51.37198;12.843671;77.66302;;NaN;;25.326;;0 / 0;1276;2017-10-03 21:22:46:383
7.806351;-5.009282;12.159598;8.480484;-0.402033;4.908173;-2.109506;-1.363597;2.014112;-72.2999;-89.4941;131.0767;0.0;9.9548;32.1106;-25.3815;321.0772;-6.3228;-55.1138;5.0;51.37198;12.843671;77.66302;;NaN;;25.326;;0 / 0;1286;2017-10-03 21:22:46:393
7.806351;-5.009282;12.159598;8.480484;-0.402033;4.908173;-2.109506;-1.363597;2.014112;-72.2999;-89.4941;131.0767;0.0;9.9548;32.1106;-25.3815;321.0772;-6.3228;-55.1138;5.0;51.37198;12.843671;77.66302;;NaN;;25.326;;0 / 0;1296;2017-10-03 21:22:46:403
7.806351;-5.009282;12.159598;8.480484;-0.402033;4.908173;-2.109506;-1.363597;2.014112;-72.2999;-89.4941;131.0767;0.0;9.9548;32.1106;-25.3815;321.0772;-6.3228;-55.1138;5.0;51.37198;12.843671;77.66302;;NaN;;25.326;;0 / 0;1307;2017-10-03 21:22:46:414
7.806351;-5.009282;12.159598;8.480484;-0.402033;4.908173;-2.109506;-1.363597;2.014112;-72.2999;-89.4941;131.0767;0.0;9.9548;32.1106;-25.3815;321.0772;-6.3228;-55.1138;5.0;51.37198;12.843671;77.66302;;NaN;;25.326;;0 / 0;1317;2017-10-03 21:22:46:424
7.806351;-5.009282;12.159598;8.480484;-0.402033;4.908173;-2.109506;-1.363597;2.014112;-72.2999;-89.4941;131.0767;0.0;9.9548;32.1106;-25.3815;321.0772;-6.3228;-55.1138;5.0;51.37198;12.843671;77.66302;;NaN;;25.326;;0 / 0;1326;2017-10-03 21:22:46:433
7.806351;-5.009282;12.159598;8.480484;-0.402033;4.908173;-2.109506;-1.363597;2.014112;-72.2999;-89.4941;131.0767;0.0;9.9548;32.1106;-25.3815;321.0772;-6.3228;-55.1138;5.0;51.37198;12.843671;77.66302;;NaN;;25.326;;0 / 0;1337;2017-10-03 21:22:46:444
7.806351;-5.009282;12.159598;8.480484;-0.402033;4.908173;-2.109506;-1.363597;2.014112;-72.2999;-89.4941;131.0767;0.0;9.9548;32.1106;-25.3815;321.0772;-6.3228;-55.1138;5.0;51.37198;12.843671;77.66302;;NaN;;25.326;;0 / 0;1346;2017-10-03 21:22:46:453
7.806351;-5.009282;12.159598;8.480484;-0.402033;4.908173;-2.109506;-1.363597;2.014112;-72.2999;-89.4941;131.0767;0.0;9.9548;32.1106;-25.3815;321.0772;-6.3228;-55.1138;5.0;51.37198;12.843671;77.66302;;NaN;;25.326;;0 / 0;1356;2017-10-03 21:22:46:463
7.806351;-5.009282;12.159598;8.480484;-0.402033;4.908173;-2.109506;-1.363597;2.014112;-72.2999;-89.4941;131.0767;0.0;9.9548;32.1106;-25.3815;321.0772;-6.3228;-55.1138;5.0;51.37198;12.843671;77.66302;;NaN;;25.326;;0 / 0;1366;2017-10-03 21:22:46:473
7.806351;-5.009282;12.159598;8.480484;-0.402033;4.908173;-2.109506;-1.363597;2.014112;-72.2999;-89.4941;131.0767;0.0;9.9548;32.1106;-25.3815;321.0772;-6.3228;-55.1138;5.0;51.37198;12.843671;77.66302;;NaN;;25.326;;0 / 0;1376;2017-10-03 21:22:46:483
7.806351;-5.009282;12.159598;8.480484;-0.402033;4.908173;-2.109506;-1.363597;2.014112;-72.2999;-89.4941;131.0767;0.0;9.9548;32.1106;-25.3815;321.0772;-6.3228;-55.1138;5.0;51.37198;12.843671;77.66302;;NaN;;25.326;;0 / 0;1387;2017-10-03 21:22:46:494
7.806351;-5.009282;12.159598;8.480484;-0.402033;4.908173;-2.109506;-1.363597;2.014112;-72.2999;-89.4941;131.0767;0.0;9.9548;32.1106;-25.3815;321.0772;-6.3228;-55.1138;5.0;51.37198;12.843671;77.66302;;NaN;;25.326;;0 / 0;1396;2017-10-03 21:22:46:503
7.806351;-5.009282;12.159598;8.480484;-0.402033;4.908173;-2.109506;-1.363597;2.014112;-72.2999;-89.4941;131.0767;0.0;9.9548;32.1106;-25.3815;321.0772;-6.3228;-55.1138;5.0;51.37198;12.843671;77.66302;;NaN;;25.326;;0 / 0;1406;2017-10-03 21:22:46:513
7.806351;-5.009282;12.159598;8.480484;-0.402033;4.908173;-2.109506;-1.363597;2.014112;-72.2999;-89.4941;131.0767;0.0;9.9548;32.1106;-25.3815;321.0772;-6.3228;-55.1138;5.0;51.37198;12.843671;77.66302;;NaN;;25.326;;0 / 0;1417;2017-10-03 21:22:46:524
7.806351;-5.009282;12.159598;8.480484;-0.402033;4.908173;-2.109506;-1.363597;2.014112;-72.2999;-89.4941;131.0767;0.0;9.9548;32.1106;-25.3815;321.0772;-6.3228;-55.1138;5.0;51.37198;12.843671;77.66302;;NaN;;25.326;;0 / 0;1426;2017-10-03 21:22:46:533
7.806351;-5.009282;12.159598;8.480484;-0.402033;4.908173;-2.109506;-1.363597;2.014112;-72.2999;-89.4941;131.0767;0.0;9.9548;32.1106;-25.3815;321.0772;-6.3228;-55.1138;5.0;51.37198;12.843671;77.66302;;NaN;;25.326;;0 / 0;1437;2017-10-03 21:22:46:544
7.806351;-5.009282;12.159598;8.480484;-0.402033;4.908173;-2.109506;-1.363597;2.014112;-72.2999;-89.4941;131.0767;0.0;9.9548;32.1106;-25.3815;321.0772;-6.3228;-55.1138;5.0;51.37198;12.843671;77.66302;;NaN;;25.326;;0 / 0;1446;2017-10-03 21:22:46:553
7.806351;-5.009282;12.159598;8.480484;-0.402033;4.908173;-2.109506;-1.363597;2.014112;-72.2999;-89.4941;131.0767;0.0;9.9548;32.1106;-25.3815;321.0772;-6.3228;-55.1138;5.0;51.37198;12.843671;77.66302;;NaN;;25.326;;0 / 0;1457;2017-10-03 21:22:46:564
7.806351;-5.009282;12.159598;8.480484;-0.402033;4.908173;-2.109506;-1.363597;2.014112;-72.2999;-89.4941;131.0767;0.0;9.9548;32.1106;-25.3815;321.0772;-6.3228;-55.1138;5.0;51.37198;12.843671;77.66302;;NaN;;25.326;;0 / 0;1466;2017-10-03 21:22:46:573
7.806351;-5.009282;12.159598;8.480484;-0.402033;4.908173;-2.109506;-1.363597;2.014112;-72.2999;-89.4941;131.0767;0.0;9.9548;32.1106;-25.3815;321.0772;-6.3228;-55.1138;5.0;51.37198;12.843671;77.66302;;NaN;;25.326;;0 / 0;1476;2017-10-03 21:22:46:583
7.806351;-5.009282;12.159598;8.480484;-0.402033;4.908173;-2.109506;-1.363597;2.014112;-72.2999;-89.4941;131.0767;0.0;9.9548;32.1106;-25.3815;321.0772;-6.3228;-55.1138;5.0;51.37198;12.843671;77.66302;;NaN;;25.326;;0 / 0;1487;2017-10-03 21:22:46:594
7.806351;-5.009282;12.159598;8.480484;-0.402033;4.908173;-2.109506;-1.363597;2.014112;-72.2999;-89.4941;131.0767;0.0;9.9548;32.1106;-25.3815;321.0772;-6.3228;-55.1138;5.0;51.37198;12.843671;77.66302;;NaN;;25.326;;0 / 0;1496;2017-10-03 21:22:46:603
7.806351;-5.009282;12.159598;8.480484;-0.402033;4.908173;-2.109506;-1.363597;2.014112;-72.2999;-89.4941;131.0767;0.0;9.9548;32.1106;-25.3815;321.0772;-6.3228;-55.1138;5.0;51.37198;12.843671;77.66302;;NaN;;25.326;;0 / 0;1507;2017-10-03 21:22:46:614
7.806351;-5.009282;12.159598;8.480484;-0.402033;4.908173;-2.109506;-1.363597;2.014112;-72.2999;-89.4941;131.0767;0.0;9.9548;32.1106;-25.3815;321.0772;-6.3228;-55.1138;5.0;51.37198;12.843671;77.66302;;NaN;;25.326;;0 / 0;1516;2017-10-03 21:22:46:623
7.806351;-5.009282;12.159598;8.480484;-0.402033;4.908173;-2.109506;-1.363597;2.014112;-72.2999;-89.4941;131.0767;0.0;9.9548;32.1106;-25.3815;321.0772;-6.3228;-55.1138;5.0;51.37198;12.843671;77.66302;;NaN;;25.326;;0 / 0;1527;2017-10-03 21:22:46:634
7.806351;-5.009282;12.159598;8.480484;-0.402033;4.908173;-2.109506;-1.363597;2.014112;-72.2999;-89.4941;131.0767;0.0;9.9548;32.1106;-25.3815;321.0772;-6.3228;-55.1138;5.0;51.37198;12.843671;77.66302;;NaN;;25.326;;0 / 0;1536;2017-10-03 21:22:46:643
7.806351;-5.009282;12.159598;8.480484;-0.402033;4.908173;-2.109506;-1.363597;2.014112;-72.2999;-89.4941;131.0767;0.0;9.9548;32.1106;-25.3815;321.0772;-6.3228;-55.1138;5.0;51.37198;12.843671;77.66302;;NaN;;25.326;;0 / 0;1546;2017-10-03 21:22:46:653
7.806351;-5.009282;12.159598;8.480484;-0.402033;4.908173;-2.109506;-1.363597;2.014112;-72.2999;-89.4941;131.0767;0.0;9.9548;32.1106;-25.3815;321.0772;-6.3228;-55.1138;5.0;51.37198;12.843671;77.66302;;NaN;;25.326;;0 / 0;1556;2017-10-03 21:22:46:663
7.806351;-5.009282;12.159598;8.480484;-0.402033;4.908173;-2.109506;-1.363597;2.014112;-72.2999;-89.4941;131.0767;0.0;9.9548;32.1106;-25.3815;321.0772;-6.3228;-55.1138;5.0;51.37198;12.843671;77.66302;;NaN;;25.326;;0 / 0;1567;2017-10-03 21:22:46:674
7.806351;-5.009282;12.159598;8.480484;-0.402033;4.908173;-2.109506;-1.363597;2.014112;-72.2999;-89.4941;131.0767;0.0;9.9548;32.1106;-25.3815;321.0772;-6.3228;-55.1138;5.0;51.37198;12.843671;77.66302;;NaN;;25.326;;0 / 0;1577;2017-10-03 21:22:46:684
7.806351;-5.009282;12.159598;8.480484;-0.402033;4.908173;-2.109506;-1.363597;2.014112;-72.2999;-89.4941;131.0767;0.0;9.9548;32.1106;-25.3815;321.0772;-6.3228;-55.1138;5.0;51.37198;12.843671;77.66302;;NaN;;25.326;;0 / 0;1586;2017-10-03 21:22:46:693
7.806351;-5.009282;12.159598;8.480484;-0.402033;4.908173;-2.109506;-1.363597;2.014112;-72.2999;-89.4941;131.0767;0.0;9.9548;32.1106;-25.3815;321.0772;-6.3228;-55.1138;5.0;51.37198;12.843671;77.66302;;NaN;;25.326;;0 / 0;1596;2017-10-03 21:22:46:703
7.806351;-5.009282;12.159598;8.480484;-0.402033;4.908173;-2.109506;-1.363597;2.014112;-72.2999;-89.4941;131.0767;0.0;9.9548;32.1106;-25.3815;321.0772;-6.3228;-55.1138;5.0;51.37198;12.843671;77.66302;;NaN;;25.326;;0 / 0;1606;2017-10-03 21:22:46:713
7.806351;-5.009282;12.159598;8.480484;-0.402033;4.908173;-2.109506;-1.363597;2.014112;-72.2999;-89.4941;131.0767;0.0;9.9548;32.1106;-25.3815;321.0772;-6.3228;-55.1138;5.0;51.37198;12.843671;77.66302;;NaN;;25.326;;0 / 0;1617;2017-10-03 21:22:46:724
7.806351;-5.009282;12.159598;8.480484;-0.402033;4.908173;-2.109506;-1.363597;2.014112;-72.2999;-89.4941;131.0767;0.0;9.9548;32.1106;-25.3815;321.0772;-6.3228;-55.1138;5.0;51.37198;12.843671;77.66302;;NaN;;25.326;;0 / 0;1626;2017-10-03 21:22:46:733
7.806351;-5.009282;12.159598;8.480484;-0.402033;4.908173;-2.109506;-1.363597;2.014112;-72.2999;-89.4941;131.0767;0.0;9.9548;32.1106;-25.3815;321.0772;-6.3228;-55.1138;5.0;51.37198;12.843671;77.66302;;NaN;;25.326;;0 / 0;1636;2017-10-03 21:22:46:743
7.806351;-5.009282;12.159598;8.480484;-0.402033;4.908173;-2.109506;-1.363597;2.014112;-72.2999;-89.4941;131.0767;0.0;9.9548;32.1106;-25.3815;321.0772;-6.3228;-55.1138;5.0;51.37198;12.843671;77.66302;;NaN;;25.326;;0 / 0;1646;2017-10-03 21:22:46:753
7.806351;-5.009282;12.159598;8.480484;-0.402033;4.908173;-2.109506;-1.363597;2.014112;-72.2999;-89.4941;131.0767;0.0;9.9548;32.1106;-25.3815;321.0772;-6.3228;-55.1138;5.0;51.37198;12.843671;77.66302;;NaN;;25.326;;0 / 0;1657;2017-10-03 21:22:46:764
7.806351;-5.009282;12.159598;8.480484;-0.402033;4.908173;-2.109506;-1.363597;2.014112;-72.2999;-89.4941;131.0767;0.0;9.9548;32.1106;-25.3815;321.0772;-6.3228;-55.1138;5.0;51.37198;12.843671;77.66302;;NaN;;25.326;;0 / 0;1666;2017-10-03 21:22:46:773
7.806351;-5.009282;12.159598;8.480484;-0.402033;4.908173;-2.109506;-1.363597;2.014112;-72.2999;-89.4941;131.0767;0.0;9.9548;32.1106;-25.3815;321.0772;-6.3228;-55.1138;5.0;51.37198;12.843671;77.66302;;NaN;;25.326;;0 / 0;1676;2017-10-03 21:22:46:783
7.806351;-5.009282;12.159598;8.480484;-0.402033;4.908173;-2.109506;-1.363597;2.014112;-72.2999;-89.4941;131.0767;0.0;9.9548;32.1106;-25.3815;321.0772;-6.3228;-55.1138;5.0;51.37198;12.843671;77.66302;;NaN;;25.326;;0 / 0;1686;2017-10-03 21:22:46:793
7.806351;-5.009282;12.159598;8.480484;-0.402033;4.908173;-2.109506;-1.363597;2.014112;-72.2999;-89.4941;131.0767;0.0;9.9548;32.1106;-25.3815;321.0772;-6.3228;-55.1138;5.0;51.37198;12.843671;77.66302;;NaN;;25.326;;0 / 0;1696;2017-10-03 21:22:46:803
7.806351;-5.009282;12.159598;8.480484;-0.402033;4.908173;-2.109506;-1.363597;2.014112;-72.2999;-89.4941;131.0767;0.0;9.9548;32.1106;-25.3815;321.0772;-6.3228;-55.1138;5.0;51.37198;12.843671;77.66302;;NaN;;25.326;;0 / 0;1706;2017-10-03 21:22:46:813
7.806351;-5.009282;12.159598;8.480484;-0.402033;4.908173;-2.109506;-1.363597;2.014112;-72.2999;-89.4941;131.0767;0.0;9.9548;32.1106;-25.3815;321.0772;-6.3228;-55.1138;5.0;51.37198;12.843671;77.66302;;NaN;;25.326;;0 / 0;1716;2017-10-03 21:22:46:823
7.806351;-5.009282;12.159598;8.480484;-0.402033;4.908173;-2.109506;-1.363597;2.014112;-72.2999;-89.4941;131.0767;0.0;9.9548;32.1106;-25.3815;321.0772;-6.3228;-55.1138;5.0;51.37198;12.843671;77.66302;;NaN;;25.326;;0 / 0;1727;2017-10-03 21:22:46:834
7.806351;-5.009282;12.159598;8.480484;-0.402033;4.908173;-2.109506;-1.363597;2.014112;-72.2999;-89.4941;131.0767;0.0;9.9548;32.1106;-25.3815;321.0772;-6.3228;-55.1138;5.0;51.37198;12.843671;77.66302;;NaN;;25.326;;0 / 0;1736;2017-10-03 21:22:46:843
7.806351;-5.009282;12.159598;8.480484;-0.402033;4.908173;-2.109506;-1.363597;2.014112;-72.2999;-89.4941;131.0767;0.0;9.9548;32.1106;-25.3815;321.0772;-6.3228;-55.1138;5.0;51.37198;12.843671;77.66302;;NaN;;25.326;;0 / 0;1747;2017-10-03 21:22:46:854
7.806351;-5.009282;12.159598;8.480484;-0.402033;4.908173;-2.109506;-1.363597;2.014112;-72.2999;-89.4941;131.0767;0.0;9.9548;32.1106;-25.3815;321.0772;-6.3228;-55.1138;5.0;51.37198;12.843671;77.66302;;NaN;;25.326;;0 / 0;1759;2017-10-03 21:22:46:866
7.806351;-5.009282;12.159598;8.480484;-0.402033;4.908173;-2.109506;-1.363597;2.014112;-72.2999;-89.4941;131.0767;0.0;9.9548;32.1106;-25.3815;321.0772;-6.3228;-55.1138;5.0;51.37198;12.843671;77.66302;;NaN;;25.326;;0 / 0;1766;2017-10-03 21:22:46:873
7.806351;-5.009282;12.159598;8.480484;-0.402033;4.908173;-2.109506;-1.363597;2.014112;-72.2999;-89.4941;131.0767;0.0;9.9548;32.1106;-25.3815;321.0772;-6.3228;-55.1138;5.0;51.37198;12.843671;77.66302;;NaN;;25.326;;0 / 0;1777;2017-10-03 21:22:46:884
7.806351;-5.009282;12.159598;8.480484;-0.402033;4.908173;-2.109506;-1.363597;2.014112;-72.2999;-89.4941;131.0767;0.0;9.9548;32.1106;-25.3815;321.0772;-6.3228;-55.1138;5.0;51.37198;12.843671;77.66302;;NaN;;25.326;;0 / 0;1787;2017-10-03 21:22:46:894
7.806351;-5.009282;12.159598;8.480484;-0.402033;4.908173;-2.109506;-1.363597;2.014112;-72.2999;-89.4941;131.0767;0.0;9.9548;32.1106;-25.3815;321.0772;-6.3228;-55.1138;5.0;51.37198;12.843671;77.66302;;NaN;;25.326;;0 / 0;1797;2017-10-03 21:22:46:904
7.806351;-5.009282;12.159598;8.480484;-0.402033;4.908173;-2.109506;-1.363597;2.014112;-72.2999;-89.4941;131.0767;0.0;9.9548;32.1106;-25.3815;321.0772;-6.3228;-55.1138;5.0;51.37198;12.843671;77.66302;;NaN;;25.326;;0 / 0;1807;2017-10-03 21:22:46:914
7.806351;-5.009282;12.159598;8.480484;-0.402033;4.908173;-2.109506;-1.363597;2.014112;-72.2999;-89.4941;131.0767;0.0;9.9548;32.1106;-25.3815;321.0772;-6.3228;-55.1138;5.0;51.37198;12.843671;77.66302;;NaN;;25.326;;0 / 0;1816;2017-10-03 21:22:46:923
7.806351;-5.009282;12.159598;8.480484;-0.402033;4.908173;-2.109506;-1.363597;2.014112;-72.2999;-89.4941;131.0767;0.0;9.9548;32.1106;-25.3815;321.0772;-6.3228;-55.1138;5.0;51.37198;12.843671;77.66302;;NaN;;25.326;;0 / 0;1827;2017-10-03 21:22:46:934
7.806351;-5.009282;12.159598;8.480484;-0.402033;4.908173;-2.109506;-1.363597;2.014112;-72.2999;-89.4941;131.0767;0.0;9.9548;32.1106;-25.3815;321.0772;-6.3228;-55.1138;5.0;51.37198;12.843671;77.66302;;NaN;;25.326;;0 / 0;1839;2017-10-03 21:22:46:946
7.806351;-5.009282;12.159598;8.480484;-0.402033;4.908173;-2.109506;-1.363597;2.014112;-72.2999;-89.4941;131.0767;0.0;9.9548;32.1106;-25.3815;321.0772;-6.3228;-55.1138;5.0;51.37198;12.843671;77.66302;;NaN;;25.326;;0 / 0;1846;2017-10-03 21:22:46:953
7.806351;-5.009282;12.159598;8.480484;-0.402033;4.908173;-2.109506;-1.363597;2.014112;-72.2999;-89.4941;131.0767;0.0;9.9548;32.1106;-25.3815;321.0772;-6.3228;-55.1138;5.0;51.37198;12.843671;77.66302;;NaN;;25.326;;0 / 0;1856;2017-10-03 21:22:46:963
7.806351;-5.009282;12.159598;8.480484;-0.402033;4.908173;-2.109506;-1.363597;2.014112;-72.2999;-89.4941;131.0767;0.0;9.9548;32.1106;-25.3815;321.0772;-6.3228;-55.1138;5.0;51.37198;12.843671;77.66302;;NaN;;25.326;;0 / 0;1867;2017-10-03 21:22:46:974
7.806351;-5.009282;12.159598;8.480484;-0.402033;4.908173;-2.109506;-1.363597;2.014112;-72.2999;-89.4941;131.0767;0.0;9.9548;32.1106;-25.3815;321.0772;-6.3228;-55.1138;5.0;51.37198;12.843671;77.66302;;NaN;;25.326;;0 / 0;1878;2017-10-03 21:22:46:985
7.806351;-5.009282;12.159598;8.480484;-0.402033;4.908173;-2.109506;-1.363597;2.014112;-72.2999;-89.4941;131.0767;0.0;9.9548;32.1106;-25.3815;321.0772;-6.3228;-55.1138;5.0;51.37198;12.843671;77.66302;;NaN;;25.326;;0 / 0;1886;2017-10-03 21:22:46:993
7.806351;-5.009282;12.159598;8.480484;-0.402033;4.908173;-2.109506;-1.363597;2.014112;-72.2999;-89.4941;131.0767;0.0;9.9548;32.1106;-25.3815;321.0772;-6.3228;-55.1138;5.0;51.37198;12.843671;77.66302;;NaN;;25.326;;0 / 0;1897;2017-10-03 21:22:47:004
7.806351;-5.009282;12.159598;8.480484;-0.402033;4.908173;-2.109506;-1.363597;2.014112;-72.2999;-89.4941;131.0767;0.0;9.9548;32.1106;-25.3815;321.0772;-6.3228;-55.1138;5.0;51.37198;12.843671;77.66302;;NaN;;25.326;;0 / 0;1906;2017-10-03 21:22:47:013
7.806351;-5.009282;12.159598;8.480484;-0.402033;4.908173;-2.109506;-1.363597;2.014112;-72.2999;-89.4941;131.0767;0.0;9.9548;32.1106;-25.3815;321.0772;-6.3228;-55.1138;5.0;51.37198;12.843671;77.66302;;NaN;;25.326;;0 / 0;1916;2017-10-03 21:22:47:023
7.806351;-5.009282;12.159598;8.480484;-0.402033;4.908173;-2.109506;-1.363597;2.014112;-72.2999;-89.4941;131.0767;0.0;9.9548;32.1106;-25.3815;321.0772;-6.3228;-55.1138;5.0;51.37198;12.843671;77.66302;;NaN;;25.326;;0 / 0;1926;2017-10-03 21:22:47:033
7.806351;-5.009282;12.159598;8.480484;-0.402033;4.908173;-2.109506;-1.363597;2.014112;-72.2999;-89.4941;131.0767;0.0;9.9548;32.1106;-25.3815;321.0772;-6.3228;-55.1138;5.0;51.37198;12.843671;77.66302;;NaN;;25.326;;0 / 0;1937;2017-10-03 21:22:47:044
7.806351;-5.009282;12.159598;8.480484;-0.402033;4.908173;-2.109506;-1.363597;2.014112;-72.2999;-89.4941;131.0767;0.0;9.9548;32.1106;-25.3815;321.0772;-6.3228;-55.1138;5.0;51.37198;12.843671;77.66302;;NaN;;25.326;;0 / 0;1946;2017-10-03 21:22:47:053
7.806351;-5.009282;12.159598;8.480484;-0.402033;4.908173;-2.109506;-1.363597;2.014112;-72.2999;-89.4941;131.0767;0.0;9.9548;32.1106;-25.3815;321.0772;-6.3228;-55.1138;5.0;51.37198;12.843671;77.66302;;NaN;;25.326;;0 / 0;1956;2017-10-03 21:22:47:063
11.510438;-6.629231;11.913138;8.961136;-1.95606;3.470197;-1.257227;-1.16956;7.482611;24.4112;-183.1723;185.1289;1.0;10.9985;31.842;-26.7639;317.1807;11.5055;-68.8311;0.0;51.37198;12.843671;77.66302;;NaN;;25.326;;0 / 0;1969;2017-10-03 21:22:47:076
11.510438;-6.629231;11.913138;8.961136;-1.95606;3.470197;-1.257227;-1.16956;7.482611;24.4112;-183.1723;185.1289;1.0;10.9985;31.842;-26.7639;317.1807;11.5055;-68.8311;0.0;51.37198;12.843671;77.66302;;NaN;;25.326;;0 / 0;1984;2017-10-03 21:22:47:091
11.510438;-6.629231;11.913138;8.961136;-1.95606;3.470197;-1.257227;-1.16956;7.482611;24.4112;-183.1723;185.1289;1.0;10.9985;31.842;-26.7639;317.1807;11.5055;-68.8311;0.0;51.37198;12.843671;77.66302;;NaN;;25.326;;0 / 0;1987;2017-10-03 21:22:47:094
11.510438;-6.629231;11.913138;8.961136;-1.95606;3.470197;-1.257227;-1.16956;7.482611;24.4112;-183.1723;185.1289;1.0;10.9985;31.842;-26.7639;317.1807;11.5055;-68.8311;0.0;51.37198;12.843671;77.66302;;NaN;;25.326;;0 / 0;1997;2017-10-03 21:22:47:104
11.510438;-6.629231;11.913138;8.961136;-1.95606;3.470197;-1.257227;-1.16956;7.482611;24.4112;-183.1723;185.1289;1.0;10.9985;31.842;-26.7639;317.1807;11.5055;-68.8311;0.0;51.37198;12.843671;77.66302;;NaN;;25.326;;0 / 0;2006;2017-10-03 21:22:47:113
11.510438;-6.629231;11.913138;8.961136;-1.95606;3.470197;-1.257227;-1.16956;7.482611;24.4112;-183.1723;185.1289;1.0;10.9985;31.842;-26.7639;317.1807;11.5055;-68.8311;0.0;51.37198;12.843671;77.66302;;NaN;;25.326;;0 / 0;2021;2017-10-03 21:22:47:128
11.510438;-6.629231;11.913138;8.961136;-1.95606;3.470197;-1.257227;-1.16956;7.482611;24.4112;-183.1723;185.1289;1.0;10.9985;31.842;-26.7639;317.1807;11.5055;-68.8311;0.0;51.37198;12.843671;77.66302;;NaN;;25.326;;0 / 0;2026;2017-10-03 21:22:47:133
11.510438;-6.629231;11.913138;8.961136;-1.95606;3.470197;-1.257227;-1.16956;7.482611;24.4112;-183.1723;185.1289;1.0;10.9985;31.842;-26.7639;317.1807;11.5055;-68.8311;0.0;51.37198;12.843671;77.66302;;NaN;;25.326;;0 / 0;2037;2017-10-03 21:22:47:144
11.510438;-6.629231;11.913138;8.961136;-1.95606;3.470197;-1.257227;-1.16956;7.482611;24.4112;-183.1723;185.1289;1.0;10.9985;31.842;-26.7639;317.1807;11.5055;-68.8311;0.0;51.37198;12.843671;77.66302;;NaN;;25.326;;0 / 0;2047;2017-10-03 21:22:47:154
11.510438;-6.629231;11.913138;8.961136;-1.95606;3.470197;-1.257227;-1.16956;7.482611;24.4112;-183.1723;185.1289;1.0;10.9985;31.842;-26.7639;317.1807;11.5055;-68.8311;0.0;51.37198;12.843671;77.66302;;NaN;;25.326;;0 / 0;2057;2017-10-03 21:22:47:164
11.510438;-6.629231;11.913138;8.961136;-1.95606;3.470197;-1.257227;-1.16956;7.482611;24.4112;-183.1723;185.1289;1.0;10.9985;31.842;-26.7639;317.1807;11.5055;-68.8311;0.0;51.37198;12.843671;77.66302;;NaN;;25.326;;0 / 0;2067;2017-10-03 21:22:47:174
13.01793;-23.126545;-0.624063;-1.847967;-9.56678;1.110001;8.049407;-8.094191;-0.442095;7.0335;107.5048;88.8777;1.0;-23.5764;2.8168;-35.8932;260.6121;11.5055;-68.8311;0.0;51.37198;12.843671;77.66302;;NaN;;25.326;;0 / 0;2076;2017-10-03 21:22:47:183
13.01793;-23.126545;-0.624063;-1.847967;-9.56678;1.110001;8.049407;-8.094191;-0.442095;7.0335;107.5048;88.8777;1.0;-23.5764;2.8168;-35.8932;260.6121;11.5055;-68.8311;0.0;51.37198;12.843671;77.66302;;NaN;;25.326;;0 / 0;2086;2017-10-03 21:22:47:193
13.01793;-23.126545;-0.624063;-1.847967;-9.56678;1.110001;8.049407;-8.094191;-0.442095;7.0335;107.5048;88.8777;1.0;-23.5764;2.8168;-35.8932;260.6121;11.5055;-68.8311;0.0;51.37198;12.843671;77.66302;;NaN;;25.326;;0 / 0;2096;2017-10-03 21:22:47:203
-1.942001;-13.768208;-0.307015;-1.847967;-9.56678;1.110001;8.049407;-8.094191;-0.442095;7.0335;107.5048;88.8777;1.0;-23.5764;2.8168;-35.8932;260.6121;11.5055;-68.8311;0.0;51.37198;12.843671;77.66302;;NaN;;25.326;;0 / 0;2106;2017-10-03 21:22:47:213
-1.942001;-13.768208;-0.307015;-1.847967;-9.56678;1.110001;8.049407;-8.094191;-0.442095;7.0335;107.5048;88.8777;1.0;-23.5764;2.8168;-35.8932;260.6121;11.5055;-68.8311;0.0;51.37198;12.843671;77.66302;;NaN;;25.326;;0 / 0;2116;2017-10-03 21:22:47:223
-1.942001;-13.768208;-0.307015;-1.847967;-9.56678;1.110001;8.049407;-8.094191;-0.442095;7.0335;107.5048;88.8777;1.0;-23.5764;2.8168;-35.8932;260.6121;11.5055;-68.8311;0.0;51.37198;12.843671;77.66302;;NaN;;25.326;;0 / 0;2127;2017-10-03 21:22:47:234
-1.942001;-13.768208;-0.307015;-1.094844;-9.736834;0.407136;-4.7462;-0.062789;-0.773803;-46.1839;-28.4827;-22.0437;1.0;-30.0186;3.7292;-31.7963;77.0077;77.3015;59.0084;0.0;51.37198;12.843671;77.66302;;NaN;;25.326;;0 / 0;2137;2017-10-03 21:22:47:244
-1.942001;-13.768208;-0.307015;-1.094844;-9.736834;0.407136;-4.7462;-0.062789;-0.773803;-46.1839;-28.4827;-22.0437;1.0;-30.0186;3.7292;-31.7963;77.0077;77.3015;59.0084;0.0;51.37198;12.843671;77.66302;;NaN;;25.326;;0 / 0;2147;2017-10-03 21:22:47:254
4.233872;-6.581364;3.637565;-1.094844;-9.736834;0.407136;-4.7462;-0.062789;-0.773803;-46.1839;-28.4827;-22.0437;1.0;-30.0186;3.7292;-31.7963;77.0077;77.3015;59.0084;0.0;51.37198;12.843671;77.66302;;NaN;;25.326;;0 / 0;2156;2017-10-03 21:22:47:263
4.233872;-6.581364;3.637565;-1.094844;-9.736834;0.407136;-4.7462;-0.062789;-0.773803;-46.1839;-28.4827;-22.0437;1.0;-30.0186;3.7292;-31.7963;77.0077;77.3015;59.0084;0.0;51.37198;12.843671;77.66302;;NaN;;25.326;;0 / 0;2166;2017-10-03 21:22:47:273
4.233872;-6.581364;3.637565;-1.094844;-9.736834;0.407136;-4.7462;-0.062789;-0.773803;-46.1839;-28.4827;-22.0437;1.0;-30.0186;3.7292;-31.7963;77.0077;77.3015;59.0084;0.0;51.37198;12.843671;77.66302;;NaN;;25.326;;0 / 0;2176;2017-10-03 21:22:47:283
4.233872;-6.581364;3.637565;-1.094844;-9.736834;0.407136;-4.7462;-0.062789;-0.773803;-46.1839;-28.4827;-22.0437;1.0;-30.0186;3.7292;-31.7963;77.0077;77.3015;59.0084;0.0;51.37198;12.843671;77.66302;;NaN;;25.326;;0 / 0;2186;2017-10-03 21:22:47:293
4.233872;-6.581364;3.637565;-1.094844;-9.736834;0.407136;-4.7462;-0.062789;-0.773803;-46.1839;-28.4827;-22.0437;1.0;-30.0186;3.7292;-31.7963;77.0077;77.3015;59.0084;0.0;51.37198;12.843671;77.66302;;NaN;;25.326;;0 / 0;2196;2017-10-03 21:22:47:303
4.233872;-6.581364;3.637565;-1.094844;-9.736834;0.407136;-4.7462;-0.062789;-0.773803;-46.1839;-28.4827;-22.0437;1.0;-30.0186;3.7292;-31.7963;77.0077;77.3015;59.0084;0.0;51.37198;12.843671;77.66302;;NaN;;25.326;;0 / 0;2206;2017-10-03 21:22:47:313
4.233872;-6.581364;3.637565;-1.094844;-9.736834;0.407136;-4.7462;-0.062789;-0.773803;-46.1839;-28.4827;-22.0437;1.0;-30.0186;3.7292;-31.7963;77.0077;77.3015;59.0084;0.0;51.37198;12.843671;77.66302;;NaN;;25.326;;0 / 0;2216;2017-10-03 21:22:47:323
-1.647689;-8.179768;2.975944;-0.084884;-9.805922;-0.084227;1.759613;3.209082;1.978483;-46.5808;124.1945;-101.8911;1.0;-29.2328;3.2303;-32.4249;67.915;83.1591;69.6015;0.0;51.37198;12.843671;77.66302;;NaN;;25.326;;0 / 0;2227;2017-10-03 21:22:47:334
-1.647689;-8.179768;2.975944;-0.084884;-9.805922;-0.084227;1.759613;3.209082;1.978483;-46.5808;124.1945;-101.8911;1.0;-29.2328;3.2303;-32.4249;67.915;83.1591;69.6015;0.0;51.37198;12.843671;77.66302;;NaN;;25.326;;0 / 0;2236;2017-10-03 21:22:47:343
-1.647689;-8.179768;2.975944;-0.084884;-9.805922;-0.084227;1.759613;3.209082;1.978483;-46.5808;124.1945;-101.8911;1.0;-27.5558;2.8748;-33.6288;5.7458;89.3014;134.7775;0.0;51.37198;12.843671;77.66302;;NaN;;25.326;;0 / 0;2247;2017-10-03 21:22:47:354
-1.647689;-8.179768;2.975944;-0.084884;-9.805922;-0.084227;1.759613;3.209082;1.978483;-46.5808;124.1945;-101.8911;1.0;-27.5558;2.8748;-33.6288;5.7458;89.3014;134.7775;0.0;51.37198;12.843671;77.66302;;NaN;;25.326;;0 / 0;2256;2017-10-03 21:22:47:363
-1.647689;-8.179768;2.975944;-0.084884;-9.805922;-0.084227;1.759613;3.209082;1.978483;-46.5808;124.1945;-101.8911;1.0;-27.5558;2.8748;-33.6288;5.7458;89.3014;134.7775;0.0;51.37198;12.843671;77.66302;;NaN;;25.326;;0 / 0;2268;2017-10-03 21:22:47:375
-1.647689;-8.179768;2.975944;-0.084884;-9.805922;-0.084227;1.759613;3.209082;1.978483;-46.5808;124.1945;-101.8911;1.0;-27.5558;2.8748;-33.6288;5.7458;89.3014;134.7775;0.0;51.37198;12.843671;77.66302;;NaN;;25.326;;0 / 0;2277;2017-10-03 21:22:47:384
-1.647689;-8.179768;2.975944;-0.084884;-9.805922;-0.084227;1.759613;3.209082;1.978483;-46.5808;124.1945;-101.8911;1.0;-27.5558;2.8748;-33.6288;5.7458;89.3014;134.7775;0.0;51.37198;12.843671;77.66302;;NaN;;25.326;;0 / 0;2287;2017-10-03 21:22:47:394
-1.647689;-8.179768;2.975944;-0.084884;-9.805922;-0.084227;1.759613;3.209082;1.978483;-46.5808;124.1945;-101.8911;1.0;-27.5558;2.8748;-33.6288;5.7458;89.3014;134.7775;0.0;51.37198;12.843671;77.66302;;NaN;;25.326;;0 / 0;2297;2017-10-03 21:22:47:404
-1.647689;-8.179768;2.975944;-0.084884;-9.805922;-0.084227;1.759613;3.209082;1.978483;-46.5808;124.1945;-101.8911;1.0;-27.5558;2.8748;-33.6288;5.7458;89.3014;134.7775;0.0;51.37198;12.843671;77.66302;;NaN;;25.326;;0 / 0;2307;2017-10-03 21:22:47:414
-1.647689;-8.179768;2.975944;-0.084884;-9.805922;-0.084227;1.759613;3.209082;1.978483;-46.5808;124.1945;-101.8911;1.0;-27.5558;2.8748;-33.6288;5.7458;89.3014;134.7775;0.0;51.37198;12.843671;77.66302;;NaN;;25.326;;0 / 0;2317;2017-10-03 21:22:47:424
1.647233;-10.906392;-1.72236;0.08407;-9.797832;0.407195;0.177029;0.827766;-1.584573;9.9334;-40.9024;-5.8331;1.0;-25.3265;0.8347;-35.5698;156.8472;87.57;-11.6654;0.0;51.37198;12.843671;77.66302;;NaN;;25.326;;0 / 0;2326;2017-10-03 21:22:47:433
1.647233;-10.906392;-1.72236;0.08407;-9.797832;0.407195;0.177029;0.827766;-1.584573;9.9334;-40.9024;-5.8331;1.0;-25.3265;0.8347;-35.5698;156.8472;87.57;-11.6654;0.0;51.37198;12.843671;77.66302;;NaN;;25.326;;0 / 0;2336;2017-10-03 21:22:47:443
1.647233;-10.906392;-1.72236;0.08407;-9.797832;0.407195;0.177029;0.827766;-1.584573;9.9334;-40.9024;-5.8331;1.0;-25.3265;0.8347;-35.5698;156.8472;87.57;-11.6654;0.0;51.37198;12.843671;77.66302;;NaN;;25.326;;0 / 0;2346;2017-10-03 21:22:47:453
0.67096;-12.101612;1.607246;0.328801;-9.789146;0.484643;-0.769925;0.166986;0.782711;8.066;-69.8292;-23.3621;1.0;-25.3265;0.8347;-35.5698;156.8472;87.57;-11.6654;0.0;47.15805;12.843671;77.66302;;NaN;;25.326;;0 / 0;2356;2017-10-03 21:22:47:463
0.67096;-12.101612;1.607246;0.328801;-9.789146;0.484643;-0.769925;0.166986;0.782711;8.066;-69.8292;-23.3621;1.0;-25.3265;0.8347;-35.5698;156.8472;87.57;-11.6654;0.0;47.15805;12.843671;77.66302;;NaN;;25.326;;0 / 0;2366;2017-10-03 21:22:47:473
0.67096;-12.101612;1.607246;0.328801;-9.789146;0.484643;-0.769925;0.166986;0.782711;8.066;-69.8292;-23.3621;1.0;-25.3265;0.8347;-35.5698;156.8472;87.57;-11.6654;0.0;47.15805;12.843671;77.66302;;NaN;;25.326;;0 / 0;2377;2017-10-03 21:22:47:484
0.67096;-12.101612;1.607246;0.328801;-9.789146;0.484643;-0.769925;0.166986;0.782711;8.066;-69.8292;-23.3621;1.0;-25.3265;0.8347;-35.5698;156.8472;87.57;-11.6654;0.0;47.15805;12.843671;77.66302;;NaN;;25.326;;0 / 0;2388;2017-10-03 21:22:47:495
1.20575;-11.928136;1.164573;0.328801;-9.789146;0.484643;-0.769925;0.166986;0.782711;8.066;-69.8292;-23.3621;1.0;-23.4146;0.415;-37.381;182.2926;86.5763;-34.1545;0.0;47.15805;12.843671;77.66302;;NaN;;25.326;;0 / 0;2396;2017-10-03 21:22:47:503
1.20575;-11.928136;1.164573;0.328801;-9.789146;0.484643;-0.769925;0.166986;0.782711;8.066;-69.8292;-23.3621;1.0;-23.4146;0.415;-37.381;182.2926;86.5763;-34.1545;0.0;47.15805;12.843671;77.66302;;NaN;;25.326;;0 / 0;2408;2017-10-03 21:22:47:515
1.20575;-11.928136;1.164573;0.610734;-9.774104;0.514065;-1.051733;0.148975;0.753439;3.5924;-40.447;-28.8682;1.0;-23.4146;0.415;-37.381;182.2926;86.5763;-34.1545;0.0;47.15805;12.843671;77.66302;;NaN;;25.326;;0 / 0;2416;2017-10-03 21:22:47:523
1.20575;-11.928136;1.164573;0.610734;-9.774104;0.514065;-1.051733;0.148975;0.753439;3.5924;-40.447;-28.8682;1.0;-23.4146;0.415;-37.381;182.2926;86.5763;-34.1545;0.0;47.15805;12.843671;77.66302;;NaN;;25.326;;0 / 0;2426;2017-10-03 21:22:47:533
2.485917;-11.911382;1.449317;0.610734;-9.774104;0.514065;-1.051733;0.148975;0.753439;3.5924;-40.447;-28.8682;1.0;-23.4146;0.415;-37.381;182.2926;86.5763;-34.1545;0.0;47.15805;12.843671;77.66302;;NaN;;25.326;;0 / 0;2436;2017-10-03 21:22:47:543
2.485917;-11.911382;1.449317;0.610734;-9.774104;0.514065;-1.051733;0.148975;0.753439;3.5924;-40.447;-28.8682;1.0;-23.4146;0.415;-37.381;182.2926;86.5763;-34.1545;0.0;47.15805;12.843671;77.66302;;NaN;;25.326;;0 / 0;2446;2017-10-03 21:22:47:553
2.485917;-11.911382;1.449317;0.610734;-9.774104;0.514065;-1.051733;0.148975;0.753439;3.5924;-40.447;-28.8682;1.0;-21.9803;-0.1709;-39.3433;200.5472;85.3308;-49.9121;0.0;47.15805;12.843671;77.66302;;NaN;;25.326;;0 / 0;2456;2017-10-03 21:22:47:563
2.473954;-11.923344;1.067664;0.919972;-9.744406;0.608747;-0.448822;0.256704;0.668877;8.3641;1.4425;-32.8295;1.0;-21.9803;-0.1709;-39.3433;200.5472;85.3308;-49.9121;0.0;47.15805;12.843671;77.66302;;NaN;;25.326;;0 / 0;2467;2017-10-03 21:22:47:574
2.473954;-11.923344;1.067664;0.919972;-9.744406;0.608747;-0.448822;0.256704;0.668877;8.3641;1.4425;-32.8295;1.0;-21.9803;-0.1709;-39.3433;200.5472;85.3308;-49.9121;0.0;47.15805;12.843671;77.66302;;NaN;;25.326;;0 / 0;2477;2017-10-03 21:22:47:584
2.473954;-11.923344;1.067664;0.919972;-9.744406;0.608747;-0.448822;0.256704;0.668877;8.3641;1.4425;-32.8295;1.0;-21.9803;-0.1709;-39.3433;200.5472;85.3308;-49.9121;0.0;47.15805;12.843671;77.66302;;NaN;;25.326;;0 / 0;2486;2017-10-03 21:22:47:593
2.473954;-11.923344;1.067664;0.919972;-9.744406;0.608747;-0.448822;0.256704;0.668877;8.3641;1.4425;-32.8295;1.0;-21.9803;-0.1709;-39.3433;200.5472;85.3308;-49.9121;0.0;47.15805;12.843671;77.66302;;NaN;;25.326;;0 / 0;2496;2017-10-03 21:22:47:603
2.706055;-11.894628;1.043738;0.919972;-9.744406;0.608747;-0.448822;0.256704;0.668877;8.3641;1.4425;-32.8295;1.0;-21.9803;-0.1709;-39.3433;200.5472;85.3308;-49.9121;0.0;47.15805;12.843671;77.66302;;NaN;;25.326;;0 / 0;2506;2017-10-03 21:22:47:613
2.706055;-11.894628;1.043738;0.919972;-9.744406;0.608747;-0.448822;0.256704;0.668877;8.3641;1.4425;-32.8295;1.0;-22.6715;-0.473;-38.739;206.1216;83.5412;-56.5073;0.0;47.15805;12.843671;77.66302;;NaN;;25.326;;0 / 0;2516;2017-10-03 21:22:47:623
2.706055;-11.894628;1.043738;0.991215;-9.736692;0.620228;0.155162;0.223291;0.284557;-1.1619;18.1899;-8.2356;1.0;-22.6715;-0.473;-38.739;206.1216;83.5412;-56.5073;0.0;47.15805;12.843671;77.66302;;NaN;;25.326;;0 / 0;2527;2017-10-03 21:22:47:634
2.706055;-11.894628;1.043738;0.991215;-9.736692;0.620228;0.155162;0.223291;0.284557;-1.1619;18.1899;-8.2356;1.0;-22.6715;-0.473;-38.739;206.1216;83.5412;-56.5073;0.0;47.15805;12.843671;77.66302;;NaN;;25.326;;0 / 0;2537;2017-10-03 21:22:47:644
1.211732;-12.235616;1.41822;0.991215;-9.736692;0.620228;0.155162;0.223291;0.284557;-1.1619;18.1899;-8.2356;1.0;-22.6715;-0.473;-38.739;206.1216;83.5412;-56.5073;0.0;47.15805;12.843671;77.66302;;NaN;;25.326;;0 / 0;2546;2017-10-03 21:22:47:653
1.211732;-12.235616;1.41822;0.991215;-9.736692;0.620228;0.155162;0.223291;0.284557;-1.1619;18.1899;-8.2356;1.0;-22.6715;-0.473;-38.739;206.1216;83.5412;-56.5073;0.0;47.15805;12.843671;77.66302;;NaN;;25.326;;0 / 0;2557;2017-10-03 21:22:47:664
1.211732;-12.235616;1.41822;0.991215;-9.736692;0.620228;0.155162;0.223291;0.284557;-1.1619;18.1899;-8.2356;1.0;-22.6715;-0.473;-38.739;206.1216;83.5412;-56.5073;0.0;47.15805;12.843671;77.66302;;NaN;;25.326;;0 / 0;2566;2017-10-03 21:22:47:673
1.211732;-12.235616;1.41822;0.991215;-9.736692;0.620228;0.155162;0.223291;0.284557;-1.1619;18.1899;-8.2356;1.0;-22.6715;-0.473;-38.739;206.1216;83.5412;-56.5073;0.0;47.15805;12.843671;77.66302;;NaN;;25.326;;0 / 0;2576;2017-10-03 21:22:47:683
1.017914;-11.59911;1.245933;1.058379;-9.732862;0.567077;-0.574919;0.043991;0.344674;-9.3118;30.0729;-9.7935;1.0;-22.7158;-0.473;-38.588;211.4804;82.9671;-61.8177;0.0;47.15805;12.843671;77.66302;;NaN;;25.326;;0 / 0;2586;2017-10-03 21:22:47:693
1.017914;-11.59911;1.245933;1.058379;-9.732862;0.567077;-0.574919;0.043991;0.344674;-9.3118;30.0729;-9.7935;1.0;-22.7158;-0.473;-38.588;211.4804;82.9671;-61.8177;0.0;47.15805;12.843671;77.66302;;NaN;;25.326;;0 / 0;2597;2017-10-03 21:22:47:704
1.017914;-11.59911;1.245933;1.058379;-9.732862;0.567077;-0.574919;0.043991;0.344674;-9.3118;30.0729;-9.7935;1.0;-22.7158;-0.473;-38.588;211.4804;82.9671;-61.8177;0.0;47.15805;12.843671;77.66302;;NaN;;25.326;;0 / 0;2608;2017-10-03 21:22:47:715
2.877137;-11.594334;1.732871;1.058379;-9.732862;0.567077;-0.574919;0.043991;0.344674;-9.3118;30.0729;-9.7935;1.0;-22.7158;-0.473;-38.588;211.4804;82.9671;-61.8177;0.0;47.15805;12.843671;77.66302;;NaN;;25.326;;0 / 0;2616;2017-10-03 21:22:47:723
2.877137;-11.594334;1.732871;1.058379;-9.732862;0.567077;-0.574919;0.043991;0.344674;-9.3118;30.0729;-9.7935;1.0;-22.7158;-0.473;-38.588;211.4804;82.9671;-61.8177;0.0;47.15805;12.843671;77.66302;;NaN;;25.326;;0 / 0;2628;2017-10-03 21:22:47:735
2.877137;-11.594334;1.732871;1.030787;-9.738532;0.518488;-0.623458;0.366829;0.597871;-10.4719;40.0011;-0.3663;1.0;-22.7158;-0.473;-38.588;211.4804;82.9671;-61.8177;0.0;47.15805;12.843671;77.66302;;NaN;;25.326;;0 / 0;2637;2017-10-03 21:22:47:744
2.877137;-11.594334;1.732871;1.030787;-9.738532;0.518488;-0.623458;0.366829;0.597871;-10.4719;40.0011;-0.3663;1.0;-22.525;-0.473;-38.2645;212.2926;83.2429;-63.2975;0.0;47.15805;12.843671;77.66302;;NaN;;25.326;;0 / 0;2646;2017-10-03 21:22:47:753
3.782822;-11.681676;0.70037;1.030787;-9.738532;0.518488;-0.623458;0.366829;0.597871;-10.4719;40.0011;-0.3663;1.0;-22.525;-0.473;-38.2645;212.2926;83.2429;-63.2975;0.0;47.15805;12.843671;77.66302;;NaN;;25.326;;0 / 0;2656;2017-10-03 21:22:47:763
3.782822;-11.681676;0.70037;1.030787;-9.738532;0.518488;-0.623458;0.366829;0.597871;-10.4719;40.0011;-0.3663;1.0;-22.525;-0.473;-38.2645;212.2926;83.2429;-63.2975;0.0;47.15805;12.843671;77.66302;;NaN;;25.326;;0 / 0;2666;2017-10-03 21:22:47:773
3.782822;-11.681676;0.70037;1.030787;-9.738532;0.518488;-0.623458;0.366829;0.597871;-10.4719;40.0011;-0.3663;1.0;-22.525;-0.473;-38.2645;212.2926;83.2429;-63.2975;0.0;47.15805;12.843671;77.66302;;NaN;;25.326;;0 / 0;2677;2017-10-03 21:22:47:784
4.462388;-12.06931;0.464683;1.030787;-9.738532;0.518488;-0.623458;0.366829;0.597871;-10.4719;40.0011;-0.3663;1.0;-22.525;-0.473;-38.2645;212.2926;83.2429;-63.2975;0.0;47.15805;12.843671;77.66302;;NaN;;25.326;;0 / 0;2691;2017-10-03 21:22:47:798
4.462388;-12.06931;0.464683;1.030787;-9.738532;0.518488;-0.623458;0.366829;0.597871;-10.4719;40.0011;-0.3663;1.0;-22.525;-0.473;-38.2645;212.2926;83.2429;-63.2975;0.0;47.15805;12.843671;77.66302;;NaN;;25.326;;0 / 0;2696;2017-10-03 21:22:47:803
4.462388;-12.06931;0.464683;1.030787;-9.738532;0.518488;-0.623458;0.366829;0.597871;-10.4719;40.0011;-0.3663;1.0;-22.525;-0.473;-38.2645;212.2926;83.2429;-63.2975;0.0;47.15805;12.843671;77.66302;;NaN;;25.326;;0 / 0;2706;2017-10-03 21:22:47:813
4.462388;-12.06931;0.464683;0.995709;-9.741014;0.539978;1.391819;0.361086;0.082752;1.9234;1.133;6.0674;1.0;-22.4823;-0.5234;-37.9272;211.5525;83.3673;-61.5288;0.0;66.8853;12.843671;77.66302;;NaN;;25.326;;0 / 0;2716;2017-10-03 21:22:47:823
4.462388;-12.06931;0.464683;0.995709;-9.741014;0.539978;1.391819;0.361086;0.082752;1.9234;1.133;6.0674;1.0;-22.4823;-0.5234;-37.9272;211.5525;83.3673;-61.5288;0.0;66.8853;12.843671;77.66302;;NaN;;25.326;;0 / 0;2727;2017-10-03 21:22:47:834
4.593995;-11.8037;-0.016274;0.995709;-9.741014;0.539978;1.391819;0.361086;0.082752;1.9234;1.133;6.0674;1.0;-22.4823;-0.5234;-37.9272;211.5525;83.3673;-61.5288;0.0;66.8853;12.843671;77.66302;;NaN;;25.326;;0 / 0;2736;2017-10-03 21:22:47:843
4.593995;-11.8037;-0.016274;1.059939;-9.737212;0.483306;2.061191;0.082034;-0.532401;1.9234;1.133;6.0674;1.0;-22.4823;-0.5234;-37.9272;211.5525;83.3673;-61.5288;0.0;66.8853;12.843671;77.66302;;NaN;;25.326;;0 / 0;2749;2017-10-03 21:22:47:856
4.593995;-11.8037;-0.016274;1.059939;-9.737212;0.483306;2.061191;0.082034;-0.532401;-4.1895;-7.1559;-2.6709;1.0;-22.4823;-0.5234;-37.9272;211.5525;83.3673;-61.5288;0.0;66.8853;12.843671;77.66302;;NaN;;25.326;;0 / 0;2756;2017-10-03 21:22:47:863
4.593995;-11.8037;-0.016274;1.059939;-9.737212;0.483306;2.061191;0.082034;-0.532401;-4.1895;-7.1559;-2.6709;1.0;-22.4823;-0.5234;-37.9272;211.5525;83.3673;-61.5288;0.0;66.8853;12.843671;77.66302;;NaN;;25.326;;0 / 0;2767;2017-10-03 21:22:47:874
4.321213;-12.086048;0.53765;1.059939;-9.737212;0.483306;2.061191;0.082034;-0.532401;-4.1895;-7.1559;-2.6709;1.0;-22.4823;-0.5234;-37.9272;211.5525;83.3673;-61.5288;0.0;66.8853;12.843671;77.66302;;NaN;;25.326;;0 / 0;2778;2017-10-03 21:22:47:885
4.321213;-12.086048;0.53765;1.059939;-9.737212;0.483306;2.061191;0.082034;-0.532401;-4.1895;-7.1559;-2.6709;1.0;-22.4503;-0.5615;-37.6663;215.5217;83.1777;-65.4882;0.0;66.8853;12.843671;77.66302;;NaN;;25.326;;0 / 0;2786;2017-10-03 21:22:47:893
4.321213;-12.086048;0.53765;1.059939;-9.737212;0.483306;2.061191;0.082034;-0.532401;-4.1895;-7.1559;-2.6709;1.0;-22.4503;-0.5615;-37.6663;215.5217;83.1777;-65.4882;0.0;66.8853;12.843671;77.66302;;NaN;;25.326;;0 / 0;2796;2017-10-03 21:22:47:903
3.811539;-11.912572;0.487403;1.059939;-9.737212;0.483306;2.061191;0.082034;-0.532401;-4.1895;-7.1559;-2.6709;1.0;-22.4503;-0.5615;-37.6663;215.5217;83.1777;-65.4882;0.0;66.8853;12.843671;77.66302;;NaN;;25.326;;0 / 0;2806;2017-10-03 21:22:47:913
3.811539;-11.912572;0.487403;1.059939;-9.737212;0.483306;2.061191;0.082034;-0.532401;-4.1895;-7.1559;-2.6709;1.0;-22.4503;-0.5615;-37.6663;215.5217;83.1777;-65.4882;0.0;66.8853;12.843671;77.66302;;NaN;;25.326;;0 / 0;2816;2017-10-03 21:22:47:923
3.811539;-11.912572;0.487403;1.059939;-9.737212;0.483306;2.061191;0.082034;-0.532401;-23.5387;-24.8483;-29.405;1.0;-22.4503;-0.5615;-37.6663;215.5217;83.1777;-65.4882;0.0;66.8853;12.843671;77.66302;;NaN;;25.326;;0 / 0;2826;2017-10-03 21:22:47:933
3.811539;-11.912572;0.487403;1.381258;-9.706346;0.222156;1.74004;0.054291;-0.271812;-23.5387;-24.8483;-29.405;1.0;-22.4503;-0.5615;-37.6663;215.5217;83.1777;-65.4882;0.0;66.8853;12.843671;77.66302;;NaN;;25.326;;0 / 0;2838;2017-10-03 21:22:47:945
3.811539;-11.912572;0.487403;1.381258;-9.706346;0.222156;1.74004;0.054291;-0.271812;-23.5387;-24.8483;-29.405;1.0;-22.4503;-0.5615;-37.6663;215.5217;83.1777;-65.4882;0.0;66.8853;12.843671;77.66302;;NaN;;25.326;;0 / 0;2847;2017-10-03 21:22:47:954
3.811539;-11.912572;0.487403;1.381258;-9.706346;0.222156;1.74004;0.054291;-0.271812;-23.5387;-24.8483;-29.405;1.0;-22.4503;-0.5615;-37.6663;215.5217;83.1777;-65.4882;0.0;66.8853;12.843671;77.66302;;NaN;;25.326;;0 / 0;2856;2017-10-03 21:22:47:963
3.811539;-11.912572;0.487403;1.381258;-9.706346;0.222156;1.74004;0.054291;-0.271812;-23.5387;-24.8483;-29.405;1.0;-22.4503;-0.5615;-37.6663;215.5217;83.1777;-65.4882;0.0;66.8853;12.843671;77.66302;;NaN;;25.326;;0 / 0;2866;2017-10-03 21:22:47:973
3.811539;-11.912572;0.487403;1.381258;-9.706346;0.222156;1.74004;0.054291;-0.271812;-23.5387;-24.8483;-29.405;1.0;-22.4503;-0.5615;-37.6663;215.5217;83.1777;-65.4882;0.0;66.8853;12.843671;77.66302;;NaN;;25.326;;0 / 0;2876;2017-10-03 21:22:47:983
3.811539;-11.912572;0.487403;1.381258;-9.706346;0.222156;1.74004;0.054291;-0.271812;-23.5387;-24.8483;-29.405;1.0;-22.4503;-0.5615;-37.6663;215.5217;83.1777;-65.4882;0.0;66.8853;12.843671;77.66302;;NaN;;25.326;;0 / 0;2886;2017-10-03 21:22:47:993
3.811539;-11.912572;0.487403;1.381258;-9.706346;0.222156;1.74004;0.054291;-0.271812;-23.5387;-24.8483;-29.405;1.0;-22.4503;-0.5615;-37.6663;215.5217;83.1777;-65.4882;0.0;66.8853;12.843671;77.66302;;NaN;;25.326;;0 / 0;2897;2017-10-03 21:22:48:004
3.811539;-11.912572;0.487403;1.381258;-9.706346;0.222156;1.74004;0.054291;-0.271812;-23.5387;-24.8483;-29.405;1.0;-22.4503;-0.5615;-37.6663;215.5217;83.1777;-65.4882;0.0;66.8853;12.843671;77.66302;;NaN;;25.326;;0 / 0;2907;2017-10-03 21:22:48:014
3.811539;-11.912572;0.487403;1.381258;-9.706346;0.222156;1.74004;0.054291;-0.271812;-23.5387;-24.8483;-29.405;1.0;-22.4503;-0.5615;-37.6663;215.5217;83.1777;-65.4882;0.0;66.8853;12.843671;77.66302;;NaN;;25.326;;0 / 0;2916;2017-10-03 21:22:48:023
3.811539;-11.912572;0.487403;1.381258;-9.706346;0.222156;1.74004;0.054291;-0.271812;-23.5387;-24.8483;-29.405;1.0;-22.4503;-0.5615;-37.6663;215.5217;83.1777;-65.4882;0.0;66.8853;12.843671;77.66302;;NaN;;25.326;;0 / 0;2926;2017-10-03 21:22:48:033
3.811539;-11.912572;0.487403;1.381258;-9.706346;0.222156;1.74004;0.054291;-0.271812;-23.5387;-24.8483;-29.405;1.0;-22.4503;-0.5615;-37.6663;215.5217;83.1777;-65.4882;0.0;66.8853;12.843671;77.66302;;NaN;;25.326;;0 / 0;2936;2017-10-03 21:22:48:043
3.811539;-11.912572;0.487403;1.381258;-9.706346;0.222156;1.74004;0.054291;-0.271812;-23.5387;-24.8483;-29.405;1.0;-22.4503;-0.5615;-37.6663;215.5217;83.1777;-65.4882;0.0;66.8853;12.843671;77.66302;;NaN;;25.326;;0 / 0;2947;2017-10-03 21:22:48:054
3.811539;-11.912572;0.487403;1.381258;-9.706346;0.222156;1.74004;0.054291;-0.271812;-23.5387;-24.8483;-29.405;1.0;-22.4503;-0.5615;-37.6663;215.5217;83.1777;-65.4882;0.0;66.8853;12.843671;77.66302;;NaN;;25.326;;0 / 0;2956;2017-10-03 21:22:48:063
3.811539;-11.912572;0.487403;1.381258;-9.706346;0.222156;1.74004;0.054291;-0.271812;-23.5387;-24.8483;-29.405;1.0;-22.4503;-0.5615;-37.6663;215.5217;83.1777;-65.4882;0.0;66.8853;12.843671;77.66302;;NaN;;25.326;;0 / 0;2966;2017-10-03 21:22:48:073
3.811539;-11.912572;0.487403;1.381258;-9.706346;0.222156;1.74004;0.054291;-0.271812;-23.5387;-24.8483;-29.405;1.0;-22.4503;-0.5615;-37.6663;215.5217;83.1777;-65.4882;0.0;66.8853;12.843671;77.66302;;NaN;;25.326;;0 / 0;2976;2017-10-03 21:22:48:083
3.811539;-11.912572;0.487403;1.381258;-9.706346;0.222156;1.74004;0.054291;-0.271812;-23.5387;-24.8483;-29.405;1.0;-22.4503;-0.5615;-37.6663;215.5217;83.1777;-65.4882;0.0;66.8853;12.843671;77.66302;;NaN;;25.326;;0 / 0;2986;2017-10-03 21:22:48:093
3.811539;-11.912572;0.487403;1.381258;-9.706346;0.222156;1.74004;0.054291;-0.271812;-23.5387;-24.8483;-29.405;1.0;-22.4503;-0.5615;-37.6663;215.5217;83.1777;-65.4882;0.0;66.8853;12.843671;77.66302;;NaN;;25.326;;0 / 0;2996;2017-10-03 21:22:48:103
3.811539;-11.912572;0.487403;1.381258;-9.706346;0.222156;1.74004;0.054291;-0.271812;-23.5387;-24.8483;-29.405;1.0;-22.4503;-0.5615;-37.6663;215.5217;83.1777;-65.4882;0.0;66.8853;12.843671;77.66302;;NaN;;25.326;;0 / 0;3012;2017-10-03 21:22:48:119
3.811539;-11.912572;0.487403;1.381258;-9.706346;0.222156;1.74004;0.054291;-0.271812;-23.5387;-24.8483;-29.405;1.0;-22.4503;-0.5615;-37.6663;215.5217;83.1777;-65.4882;0.0;66.8853;12.843671;77.66302;;NaN;;25.326;;0 / 0;3024;2017-10-03 21:22:48:131
3.811539;-11.912572;0.487403;1.381258;-9.706346;0.222156;1.74004;0.054291;-0.271812;-23.5387;-24.8483;-29.405;1.0;-22.4503;-0.5615;-37.6663;215.5217;83.1777;-65.4882;0.0;66.8853;12.843671;77.66302;;NaN;;25.326;;0 / 0;3028;2017-10-03 21:22:48:135
3.811539;-11.912572;0.487403;1.381258;-9.706346;0.222156;1.74004;0.054291;-0.271812;-23.5387;-24.8483;-29.405;1.0;-22.4503;-0.5615;-37.6663;215.5217;83.1777;-65.4882;0.0;66.8853;12.843671;77.66302;;NaN;;25.326;;0 / 0;3036;2017-10-03 21:22:48:143
3.811539;-11.912572;0.487403;1.381258;-9.706346;0.222156;1.74004;0.054291;-0.271812;-23.5387;-24.8483;-29.405;1.0;-22.4503;-0.5615;-37.6663;215.5217;83.1777;-65.4882;0.0;66.8853;12.843671;77.66302;;NaN;;25.326;;0 / 0;3047;2017-10-03 21:22:48:154
3.811539;-11.912572;0.487403;1.381258;-9.706346;0.222156;1.74004;0.054291;-0.271812;-23.5387;-24.8483;-29.405;1.0;-22.4503;-0.5615;-37.6663;215.5217;83.1777;-65.4882;0.0;66.8853;12.843671;77.66302;;NaN;;25.326;;0 / 0;3057;2017-10-03 21:22:48:164
3.811539;-11.912572;0.487403;1.381258;-9.706346;0.222156;1.74004;0.054291;-0.271812;-23.5387;-24.8483;-29.405;1.0;-22.4503;-0.5615;-37.6663;215.5217;83.1777;-65.4882;0.0;66.8853;12.843671;77.66302;;NaN;;25.326;;0 / 0;3067;2017-10-03 21:22:48:174
3.811539;-11.912572;0.487403;1.381258;-9.706346;0.222156;1.74004;0.054291;-0.271812;-23.5387;-24.8483;-29.405;1.0;-22.4503;-0.5615;-37.6663;215.5217;83.1777;-65.4882;0.0;66.8853;12.843671;77.66302;;NaN;;25.326;;0 / 0;3078;2017-10-03 21:22:48:185
3.811539;-11.912572;0.487403;1.381258;-9.706346;0.222156;1.74004;0.054291;-0.271812;-23.5387;-24.8483;-29.405;1.0;-22.4503;-0.5615;-37.6663;215.5217;83.1777;-65.4882;0.0;66.8853;12.843671;77.66302;;NaN;;25.326;;0 / 0;3086;2017-10-03 21:22:48:193
3.811539;-11.912572;0.487403;1.381258;-9.706346;0.222156;1.74004;0.054291;-0.271812;-23.5387;-24.8483;-29.405;1.0;-22.4503;-0.5615;-37.6663;215.5217;83.1777;-65.4882;0.0;66.8853;12.843671;77.66302;;NaN;;25.326;;0 / 0;3096;2017-10-03 21:22:48:203
3.811539;-11.912572;0.487403;1.381258;-9.706346;0.222156;1.74004;0.054291;-0.271812;-23.5387;-24.8483;-29.405;1.0;-22.4503;-0.5615;-37.6663;215.5217;83.1777;-65.4882;0.0;66.8853;12.843671;77.66302;;NaN;;25.326;;0 / 0;3107;2017-10-03 21:22:48:214
6.308442;-9.99593;-3.647393;2.152157;-9.554452;-0.501062;0.493555;0.084465;0.149489;-75.4857;-3.0372;-79.6245;1.0;-22.4213;-0.5539;-37.6068;230.9376;81.7982;-80.863;0.0;66.8853;12.843671;77.66302;;NaN;;25.326;;0 / 0;3116;2017-10-03 21:22:48:223
6.308442;-9.99593;-3.647393;2.152157;-9.554452;-0.501062;0.493555;0.084465;0.149489;-75.4857;-3.0372;-79.6245;1.0;-22.4213;-0.5539;-37.6068;230.9376;81.7982;-80.863;0.0;66.8853;12.843671;77.66302;;NaN;;25.326;;0 / 0;3126;2017-10-03 21:22:48:233
6.308442;-9.99593;-3.647393;2.152157;-9.554452;-0.501062;0.493555;0.084465;0.149489;-75.4857;-3.0372;-79.6245;1.0;-22.4213;-0.5539;-37.6068;230.9376;81.7982;-80.863;0.0;66.8853;12.843671;77.66302;;NaN;;25.326;;0 / 0;3136;2017-10-03 21:22:48:243
6.308442;-9.99593;-3.647393;2.152157;-9.554452;-0.501062;0.493555;0.084465;0.149489;-75.4857;-3.0372;-79.6245;1.0;-22.4213;-0.5539;-37.6068;230.9376;81.7982;-80.863;0.0;66.8853;12.843671;77.66302;;NaN;;25.326;;0 / 0;3146;2017-10-03 21:22:48:253
6.308442;-9.99593;-3.647393;2.152157;-9.554452;-0.501062;0.493555;0.084465;0.149489;-75.4857;-3.0372;-79.6245;1.0;-22.4213;-0.5539;-37.6068;230.9376;81.7982;-80.863;0.0;66.8853;12.843671;77.66302;;NaN;;25.326;;0 / 0;3156;2017-10-03 21:22:48:263
6.308442;-9.99593;-3.647393;2.152157;-9.554452;-0.501062;0.493555;0.084465;0.149489;-75.4857;-3.0372;-79.6245;1.0;-22.4213;-0.5539;-37.6068;230.9376;81.7982;-80.863;0.0;66.8853;12.843671;77.66302;;NaN;;25.326;;0 / 0;3166;2017-10-03 21:22:48:273
6.308442;-9.99593;-3.647393;2.152157;-9.554452;-0.501062;0.493555;0.084465;0.149489;-75.4857;-3.0372;-79.6245;1.0;-22.4213;-0.5539;-37.6068;230.9376;81.7982;-80.863;0.0;66.8853;12.843671;77.66302;;NaN;;25.326;;0 / 0;3176;2017-10-03 21:22:48:283
6.308442;-9.99593;-3.647393;2.152157;-9.554452;-0.501062;0.493555;0.084465;0.149489;-75.4857;-3.0372;-79.6245;1.0;-22.4213;-0.5539;-37.6068;230.9376;81.7982;-80.863;0.0;66.8853;12.843671;77.66302;;NaN;;25.326;;0 / 0;3187;2017-10-03 21:22:48:294
6.308442;-9.99593;-3.647393;2.152157;-9.554452;-0.501062;0.493555;0.084465;0.149489;-75.4857;-3.0372;-79.6245;1.0;-22.4213;-0.5539;-37.6068;230.9376;81.7982;-80.863;0.0;66.8853;12.843671;77.66302;;NaN;;25.326;;0 / 0;3196;2017-10-03 21:22:48:303
6.308442;-9.99593;-3.647393;2.152157;-9.554452;-0.501062;0.493555;0.084465;0.149489;-75.4857;-3.0372;-79.6245;1.0;-22.4213;-0.5539;-37.6068;230.9376;81.7982;-80.863;0.0;66.8853;12.843671;77.66302;;NaN;;25.326;;0 / 0;3207;2017-10-03 21:22:48:314
6.308442;-9.99593;-3.647393;2.152157;-9.554452;-0.501062;0.493555;0.084465;0.149489;-75.4857;-3.0372;-79.6245;1.0;-22.4213;-0.5539;-37.6068;230.9376;81.7982;-80.863;0.0;66.8853;12.843671;77.66302;;NaN;;25.326;;0 / 0;3217;2017-10-03 21:22:48:324
6.308442;-9.99593;-3.647393;2.152157;-9.554452;-0.501062;0.493555;0.084465;0.149489;-75.4857;-3.0372;-79.6245;1.0;-22.4213;-0.5539;-37.6068;230.9376;81.7982;-80.863;0.0;66.8853;12.843671;77.66302;;NaN;;25.326;;0 / 0;3226;2017-10-03 21:22:48:333
6.308442;-9.99593;-3.647393;2.152157;-9.554452;-0.501062;0.493555;0.084465;0.149489;-75.4857;-3.0372;-79.6245;1.0;-22.4213;-0.5539;-37.6068;230.9376;81.7982;-80.863;0.0;66.8853;12.843671;77.66302;;NaN;;25.326;;0 / 0;3236;2017-10-03 21:22:48:343
6.308442;-9.99593;-3.647393;2.152157;-9.554452;-0.501062;0.493555;0.084465;0.149489;-75.4857;-3.0372;-79.6245;1.0;-22.4213;-0.5539;-37.6068;230.9376;81.7982;-80.863;0.0;66.8853;12.843671;77.66302;;NaN;;25.326;;0 / 0;3246;2017-10-03 21:22:48:353
6.308442;-9.99593;-3.647393;2.152157;-9.554452;-0.501062;0.493555;0.084465;0.149489;-75.4857;-3.0372;-79.6245;1.0;-22.4213;-0.5539;-37.6068;230.9376;81.7982;-80.863;0.0;66.8853;12.843671;77.66302;;NaN;;25.326;;0 / 0;3256;2017-10-03 21:22:48:363
6.308442;-9.99593;-3.647393;2.152157;-9.554452;-0.501062;0.493555;0.084465;0.149489;-75.4857;-3.0372;-79.6245;1.0;-22.4213;-0.5539;-37.6068;230.9376;81.7982;-80.863;0.0;66.8853;12.843671;77.66302;;NaN;;25.326;;0 / 0;3267;2017-10-03 21:22:48:374
6.308442;-9.99593;-3.647393;2.152157;-9.554452;-0.501062;0.493555;0.084465;0.149489;-75.4857;-3.0372;-79.6245;1.0;-22.4213;-0.5539;-37.6068;230.9376;81.7982;-80.863;0.0;66.8853;12.843671;77.66302;;NaN;;25.326;;0 / 0;3277;2017-10-03 21:22:48:384
13.642442;-27.176395;-5.209908;5.513577;-7.863921;-1.982321;5.877279;-13.260082;-2.602021;24.7434;32.3417;81.6502;1.0;-22.7432;0.4623;-37.8326;252.3569;76.9778;-103.106;0.0;66.8853;12.843671;77.66302;;NaN;;25.326;;0 / 0;3286;2017-10-03 21:22:48:393
13.642442;-27.176395;-5.209908;5.513577;-7.863921;-1.982321;5.877279;-13.260082;-2.602021;24.7434;32.3417;81.6502;1.0;-22.7432;0.4623;-37.8326;252.3569;76.9778;-103.106;0.0;66.8853;12.843671;77.66302;;NaN;;25.326;;0 / 0;3296;2017-10-03 21:22:48:403
13.642442;-27.176395;-5.209908;5.513577;-7.863921;-1.982321;5.877279;-13.260082;-2.602021;24.7434;32.3417;81.6502;1.0;-22.7432;0.4623;-37.8326;252.3569;76.9778;-103.106;0.0;66.8853;12.843671;77.66302;;NaN;;25.326;;0 / 0;3306;2017-10-03 21:22:48:413
13.642442;-27.176395;-5.209908;5.513577;-7.863921;-1.982321;5.877279;-13.260082;-2.602021;24.7434;32.3417;81.6502;1.0;-22.7432;0.4623;-37.8326;252.3569;76.9778;-103.106;0.0;66.8853;12.843671;77.66302;;NaN;;25.326;;0 / 0;3321;2017-10-03 21:22:48:428
13.642442;-27.176395;-5.209908;5.513577;-7.863921;-1.982321;5.877279;-13.260082;-2.602021;24.7434;32.3417;81.6502;1.0;-22.7432;0.4623;-37.8326;252.3569;76.9778;-103.106;0.0;66.8853;12.843671;77.66302;;NaN;;25.326;;0 / 0;3326;2017-10-03 21:22:48:433
13.642442;-27.176395;-5.209908;5.513577;-7.863921;-1.982321;5.877279;-13.260082;-2.602021;24.7434;32.3417;81.6502;1.0;-22.7432;0.4623;-37.8326;252.3569;76.9778;-103.106;0.0;66.8853;12.843671;77.66302;;NaN;;25.326;;0 / 0;3336;2017-10-03 21:22:48:443
13.642442;-27.176395;-5.209908;5.513577;-7.863921;-1.982321;5.877279;-13.260082;-2.602021;24.7434;32.3417;81.6502;1.0;-22.7432;0.4623;-37.8326;252.3569;76.9778;-103.106;0.0;66.8853;12.843671;77.66302;;NaN;;25.326;;0 / 0;3347;2017-10-03 21:22:48:454
2.980027;-1.950063;-7.210305;1.617104;-9.633754;0.863794;6.040208;0.645516;-5.793667;44.2797;-27.9633;43.8269;1.0;-21.1639;0.4639;-38.2355;213.4311;79.2252;-61.8906;0.0;45.13095;12.843671;77.66302;;NaN;;25.326;;0 / 0;3357;2017-10-03 21:22:48:464
2.980027;-1.950063;-7.210305;1.617104;-9.633754;0.863794;6.040208;0.645516;-5.793667;44.2797;-27.9633;43.8269;1.0;-21.1639;0.4639;-38.2355;213.4311;79.2252;-61.8906;0.0;45.13095;12.843671;77.66302;;NaN;;25.326;;0 / 0;3367;2017-10-03 21:22:48:474
2.980027;-1.950063;-7.210305;1.617104;-9.633754;0.863794;6.040208;0.645516;-5.793667;44.2797;-27.9633;43.8269;1.0;-21.1639;0.4639;-38.2355;213.4311;79.2252;-61.8906;0.0;45.13095;12.843671;77.66302;;NaN;;25.326;;0 / 0;3377;2017-10-03 21:22:48:484
2.980027;-1.950063;-7.210305;1.617104;-9.633754;0.863794;6.040208;0.645516;-5.793667;44.2797;-27.9633;43.8269;1.0;-21.1639;0.4639;-38.2355;213.4311;79.2252;-61.8906;0.0;45.13095;12.843671;77.66302;;NaN;;25.326;;0 / 0;3387;2017-10-03 21:22:48:494
2.980027;-1.950063;-7.210305;1.617104;-9.633754;0.863794;6.040208;0.645516;-5.793667;44.2797;-27.9633;43.8269;1.0;-21.1639;0.4639;-38.2355;213.4311;79.2252;-61.8906;0.0;45.13095;12.843671;77.66302;;NaN;;25.326;;0 / 0;3401;2017-10-03 21:22:48:508
2.980027;-1.950063;-7.210305;1.617104;-9.633754;0.863794;6.040208;0.645516;-5.793667;44.2797;-27.9633;43.8269;1.0;-21.1639;0.4639;-38.2355;213.4311;79.2252;-61.8906;0.0;45.13095;12.843671;77.66302;;NaN;;25.326;;0 / 0;3407;2017-10-03 21:22:48:514
2.980027;-1.950063;-7.210305;1.617104;-9.633754;0.863794;6.040208;0.645516;-5.793667;44.2797;-27.9633;43.8269;1.0;-21.1639;0.4639;-38.2355;213.4311;79.2252;-61.8906;0.0;45.13095;12.843671;77.66302;;NaN;;25.326;;0 / 0;3417;2017-10-03 21:22:48:524
2.980027;-1.950063;-7.210305;1.617104;-9.633754;0.863794;6.040208;0.645516;-5.793667;44.2797;-27.9633;43.8269;1.0;-21.1639;0.4639;-38.2355;213.4311;79.2252;-61.8906;0.0;45.13095;12.843671;77.66302;;NaN;;25.326;;0 / 0;3427;2017-10-03 21:22:48:534
0.784623;-1.355443;4.336265;2.618119;-9.35807;-1.319976;-3.379977;11.038422;6.416692;-59.9859;-84.3665;-72.5377;1.0;-20.3278;0.7324;-38.0493;214.7509;79.2252;-61.8906;0.0;45.13095;12.843671;77.66302;;NaN;;25.326;;0 / 0;3437;2017-10-03 21:22:48:544
0.784623;-1.355443;4.336265;2.618119;-9.35807;-1.319976;-3.379977;11.038422;6.416692;-59.9859;-84.3665;-72.5377;1.0;-20.3278;0.7324;-38.0493;214.7509;79.2252;-61.8906;0.0;45.13095;12.843671;77.66302;;NaN;;25.326;;0 / 0;3446;2017-10-03 21:22:48:553
0.784623;-1.355443;4.336265;2.618119;-9.35807;-1.319976;-3.379977;11.038422;6.416692;-59.9859;-84.3665;-72.5377;1.0;-20.3278;0.7324;-38.0493;214.7509;79.2252;-61.8906;0.0;45.13095;12.843671;77.66302;;NaN;;25.326;;0 / 0;3456;2017-10-03 21:22:48:563
0.784623;-1.355443;4.336265;2.618119;-9.35807;-1.319976;-3.379977;11.038422;6.416692;-59.9859;-84.3665;-72.5377;1.0;-20.3278;0.7324;-38.0493;214.7509;79.2252;-61.8906;0.0;45.13095;12.843671;77.66302;;NaN;;25.326;;0 / 0;3467;2017-10-03 21:22:48:574
-0.269424;-1.320744;2.041541;2.618119;-9.35807;-1.319976;-3.379977;11.038422;6.416692;-59.9859;-84.3665;-72.5377;1.0;-20.3278;0.7324;-38.0493;214.7509;79.2252;-61.8906;0.0;45.13095;12.843671;77.66302;;NaN;;25.326;;0 / 0;3476;2017-10-03 21:22:48:583
-0.269424;-1.320744;2.041541;2.618119;-9.35807;-1.319976;-3.379977;11.038422;6.416692;-59.9859;-84.3665;-72.5377;1.0;-20.3278;0.7324;-38.0493;214.7509;79.2252;-61.8906;0.0;45.13095;12.843671;77.66302;;NaN;;25.326;;0 / 0;3486;2017-10-03 21:22:48:593
-0.269424;-1.320744;2.041541;2.956319;-9.244058;-1.406403;-4.881266;10.166614;3.843806;-23.0316;31.0058;-34.2764;1.0;-20.3278;0.7324;-38.0493;214.7509;79.2252;-61.8906;0.0;45.13095;12.843671;77.66302;;NaN;;25.326;;0 / 0;3497;2017-10-03 21:22:48:604
-0.269424;-1.320744;2.041541;2.956319;-9.244058;-1.406403;-4.881266;10.166614;3.843806;-23.0316;31.0058;-34.2764;1.0;-20.3278;0.7324;-38.0493;214.7509;79.2252;-61.8906;0.0;45.13095;12.843671;77.66302;;NaN;;25.326;;0 / 0;3506;2017-10-03 21:22:48:613
1.120804;-0.744084;-1.034432;2.956319;-9.244058;-1.406403;-4.881266;10.166614;3.843806;-23.0316;31.0058;-34.2764;1.0;-20.3278;0.7324;-38.0493;214.7509;79.2252;-61.8906;0.0;45.13095;12.843671;77.66302;;NaN;;25.326;;0 / 0;3516;2017-10-03 21:22:48:623
1.120804;-0.744084;-1.034432;2.956319;-9.244058;-1.406403;-4.881266;10.166614;3.843806;-23.0316;31.0058;-34.2764;1.0;-18.8965;2.1973;-38.3362;269.8416;70.4983;-115.4417;0.0;45.13095;12.843671;77.66302;;NaN;;25.326;;0 / 0;3526;2017-10-03 21:22:48:633
1.120804;-0.744084;-1.034432;2.956319;-9.244058;-1.406403;-4.881266;10.166614;3.843806;-23.0316;31.0058;-34.2764;1.0;-18.8965;2.1973;-38.3362;269.8416;70.4983;-115.4417;0.0;45.13095;12.843671;77.66302;;NaN;;25.326;;0 / 0;3537;2017-10-03 21:22:48:644
2.095887;-0.823033;-0.139504;2.956319;-9.244058;-1.406403;-4.881266;10.166614;3.843806;13.5319;8.1744;17.7694;1.0;-18.8965;2.1973;-38.3362;269.8416;70.4983;-115.4417;0.0;45.13095;12.843671;77.66302;;NaN;;25.326;;0 / 0;3546;2017-10-03 21:22:48:653
2.095887;-0.823033;-0.139504;2.780151;-9.324746;-1.220766;-4.648979;10.065158;3.632546;13.5319;8.1744;17.7694;1.0;-18.8965;2.1973;-38.3362;269.8416;70.4983;-115.4417;0.0;45.13095;12.843671;77.66302;;NaN;;25.326;;0 / 0;3557;2017-10-03 21:22:48:664
2.095887;-0.823033;-0.139504;2.780151;-9.324746;-1.220766;-4.648979;10.065158;3.632546;13.5319;8.1744;17.7694;1.0;-18.8965;2.1973;-38.3362;269.8416;70.4983;-115.4417;0.0;45.13095;12.843671;77.66302;;NaN;;25.326;;0 / 0;3568;2017-10-03 21:22:48:675
2.095887;-0.823033;-0.139504;2.780151;-9.324746;-1.220766;-4.648979;10.065158;3.632546;13.5319;8.1744;17.7694;1.0;-18.8965;2.1973;-38.3362;269.8416;70.4983;-115.4417;0.0;45.13095;12.843671;77.66302;;NaN;;25.326;;0 / 0;3577;2017-10-03 21:22:48:684
2.459595;-2.539891;0.613029;2.780151;-9.324746;-1.220766;-4.648979;10.065158;3.632546;13.5319;8.1744;17.7694;1.0;-18.8965;2.1973;-38.3362;269.8416;70.4983;-115.4417;0.0;45.13095;12.843671;77.66302;;NaN;;25.326;;0 / 0;3587;2017-10-03 21:22:48:694
2.459595;-2.539891;0.613029;2.780151;-9.324746;-1.220766;-4.648979;10.065158;3.632546;13.5319;8.1744;17.7694;1.0;-18.483;2.7863;-38.5193;270.2228;71.9635;-113.7063;0.0;45.13095;12.843671;77.66302;;NaN;;25.326;;0 / 0;3596;2017-10-03 21:22:48:703
2.459595;-2.539891;0.613029;2.485637;-9.413338;-1.175185;-2.263178;10.694476;0.451151;31.7673;-90.7189;21.1817;1.0;-18.483;2.7863;-38.5193;270.2228;71.9635;-113.7063;0.0;45.13095;12.843671;77.66302;;NaN;;25.326;;0 / 0;3606;2017-10-03 21:22:48:713
2.459595;-2.539891;0.613029;2.485637;-9.413338;-1.175185;-2.263178;10.694476;0.451151;31.7673;-90.7189;21.1817;1.0;-18.483;2.7863;-38.5193;270.2228;71.9635;-113.7063;0.0;45.13095;12.843671;77.66302;;NaN;;25.326;;0 / 0;3617;2017-10-03 21:22:48:724
1.703461;-2.910771;-1.43522;2.485637;-9.413338;-1.175185;-2.263178;10.694476;0.451151;31.7673;-90.7189;21.1817;1.0;-18.483;2.7863;-38.5193;270.2228;71.9635;-113.7063;0.0;45.13095;12.843671;77.66302;;NaN;;25.326;;0 / 0;3627;2017-10-03 21:22:48:734
1.703461;-2.910771;-1.43522;2.485637;-9.413338;-1.175185;-2.263178;10.694476;0.451151;31.7673;-90.7189;21.1817;1.0;-18.483;2.7863;-38.5193;270.2228;71.9635;-113.7063;0.0;45.13095;12.843671;77.66302;;NaN;;25.326;;0 / 0;3636;2017-10-03 21:22:48:743
1.703461;-2.910771;-1.43522;2.485637;-9.413338;-1.175185;-2.263178;10.694476;0.451151;31.7673;-90.7189;21.1817;1.0;-18.483;2.7863;-38.5193;270.2228;71.9635;-113.7063;0.0;45.13095;12.843671;77.66302;;NaN;;25.326;;0 / 0;3647;2017-10-03 21:22:48:754
1.703461;-2.910771;-1.43522;2.485637;-9.413338;-1.175185;-2.263178;10.694476;0.451151;31.7673;-90.7189;21.1817;1.0;-18.8293;2.7847;-38.2736;269.9243;73.718;-115.3043;0.0;45.13095;12.843671;77.66302;;NaN;;25.326;;0 / 0;3657;2017-10-03 21:22:48:764
-0.204818;-3.93131;-3.021661;2.451545;-9.380152;-1.474131;-1.488607;8.919032;1.214507;-14.1823;-67.759;-4.1353;1.0;-18.8293;2.7847;-38.2736;269.9243;73.718;-115.3043;0.0;67.5114;12.843671;77.66302;;NaN;;25.326;;0 / 0;3666;2017-10-03 21:22:48:773
-0.204818;-3.93131;-3.021661;2.451545;-9.380152;-1.474131;-1.488607;8.919032;1.214507;-14.1823;-67.759;-4.1353;1.0;-18.8293;2.7847;-38.2736;269.9243;73.718;-115.3043;0.0;67.5114;12.843671;77.66302;;NaN;;25.326;;0 / 0;3677;2017-10-03 21:22:48:784
-0.204818;-3.93131;-3.021661;2.451545;-9.380152;-1.474131;-1.488607;8.919032;1.214507;-14.1823;-67.759;-4.1353;1.0;-18.8293;2.7847;-38.2736;269.9243;73.718;-115.3043;0.0;67.5114;12.843671;77.66302;;NaN;;25.326;;0 / 0;3686;2017-10-03 21:22:48:793
-0.3759;-7.170003;3.502372;2.451545;-9.380152;-1.474131;-1.488607;8.919032;1.214507;-14.1823;-67.759;-4.1353;1.0;-18.8293;2.7847;-38.2736;269.9243;73.718;-115.3043;0.0;67.5114;12.843671;77.66302;;NaN;;25.326;;0 / 0;3696;2017-10-03 21:22:48:803
-0.3759;-7.170003;3.502372;2.451545;-9.380152;-1.474131;-1.488607;8.919032;1.214507;-14.1823;-67.759;-4.1353;1.0;-18.8293;2.7847;-38.2736;269.9243;73.718;-115.3043;0.0;67.5114;12.843671;77.66302;;NaN;;25.326;;0 / 0;3706;2017-10-03 21:22:48:813
-0.3759;-7.170003;3.502372;2.663546;-9.1215;-2.423663;-3.974343;6.915317;-0.98022;-119.0197;76.3547;-10.2079;1.0;-18.8293;2.7847;-38.2736;269.9243;73.718;-115.3043;0.0;67.5114;12.843671;77.66302;;NaN;;25.326;;0 / 0;3716;2017-10-03 21:22:48:823
-0.3759;-7.170003;3.502372;2.663546;-9.1215;-2.423663;-3.974343;6.915317;-0.98022;-119.0197;76.3547;-10.2079;1.0;-18.9041;3.0548;-38.1241;286.1196;68.4557;-132.3003;0.0;67.5114;12.843671;77.66302;;NaN;;25.326;;0 / 0;3726;2017-10-03 21:22:48:833
33.047043;-41.530933;-5.6466;2.663546;-9.1215;-2.423663;-3.974343;6.915317;-0.98022;-119.0197;76.3547;-10.2079;1.0;-18.9041;3.0548;-38.1241;286.1196;68.4557;-132.3003;0.0;67.5114;12.843671;77.66302;;NaN;;25.326;;0 / 0;3737;2017-10-03 21:22:48:844
33.047043;-41.530933;-5.6466;2.663546;-9.1215;-2.423663;-3.974343;6.915317;-0.98022;-119.0197;76.3547;-10.2079;1.0;-18.9041;3.0548;-38.1241;286.1196;68.4557;-132.3003;0.0;67.5114;12.843671;77.66302;;NaN;;25.326;;0 / 0;3747;2017-10-03 21:22:48:854
33.047043;-41.530933;-5.6466;2.663546;-9.1215;-2.423663;-3.974343;6.915317;-0.98022;-119.0197;76.3547;-10.2079;1.0;-18.9041;3.0548;-38.1241;286.1196;68.4557;-132.3003;0.0;67.5114;12.843671;77.66302;;NaN;;25.326;;0 / 0;3756;2017-10-03 21:22:48:863
33.047043;-41.530933;-5.6466;2.663546;-9.1215;-2.423663;-3.974343;6.915317;-0.98022;-119.0197;76.3547;-10.2079;1.0;-18.9041;3.0548;-38.1241;286.1196;68.4557;-132.3003;0.0;67.5114;12.843671;77.66302;;NaN;;25.326;;0 / 0;3766;2017-10-03 21:22:48:873
-12.304122;-26.542301;19.711342;6.017095;-7.580524;-1.581334;9.189874;-17.082367;0.370221;-44.6679;265.3156;-328.2731;1.0;-18.9041;3.0548;-38.1241;286.1196;68.4557;-132.3003;0.0;67.5114;12.843671;77.66302;;NaN;;25.326;;0 / 0;3778;2017-10-03 21:22:48:885
-12.304122;-26.542301;19.711342;6.017095;-7.580524;-1.581334;9.189874;-17.082367;0.370221;-44.6679;265.3156;-328.2731;1.0;-18.9041;3.0548;-38.1241;286.1196;68.4557;-132.3003;0.0;67.5114;12.843671;77.66302;;NaN;;25.326;;0 / 0;3787;2017-10-03 21:22:48:894
-12.304122;-26.542301;19.711342;6.017095;-7.580524;-1.581334;9.189874;-17.082367;0.370221;-44.6679;265.3156;-328.2731;1.0;-17.3279;2.8183;-38.2736;265.351;50.6239;-104.7247;0.0;67.5114;12.843671;77.66302;;NaN;;25.326;;0 / 0;3796;2017-10-03 21:22:48:903
-12.304122;-26.542301;19.711342;6.017095;-7.580524;-1.581334;9.189874;-17.082367;0.370221;-44.6679;265.3156;-328.2731;1.0;-17.3279;2.8183;-38.2736;265.351;50.6239;-104.7247;0.0;67.5114;12.843671;77.66302;;NaN;;25.326;;0 / 0;3807;2017-10-03 21:22:48:914
1.624497;-10.923146;-10.383186;6.017095;-7.580524;-1.581334;9.189874;-17.082367;0.370221;-44.6679;265.3156;-328.2731;1.0;-17.3279;2.8183;-38.2736;265.351;50.6239;-104.7247;0.0;67.5114;12.843671;77.66302;;NaN;;25.326;;0 / 0;3817;2017-10-03 21:22:48:924
1.624497;-10.923146;-10.383186;6.017095;-7.580524;-1.581334;9.189874;-17.082367;0.370221;-44.6679;265.3156;-328.2731;1.0;-17.3279;2.8183;-38.2736;265.351;50.6239;-104.7247;0.0;67.5114;12.843671;77.66302;;NaN;;25.326;;0 / 0;3826;2017-10-03 21:22:48:933
1.624497;-10.923146;-10.383186;5.022705;-8.3364;-1.203013;-8.19955;-8.919082;4.886951;17.5745;22.7807;110.2281;1.0;-17.3279;2.8183;-38.2736;265.351;50.6239;-104.7247;0.0;67.5114;12.843671;77.66302;;NaN;;25.326;;0 / 0;3836;2017-10-03 21:22:48:943
16.396591;-21.353458;1.568961;5.022705;-8.3364;-1.203013;-8.19955;-8.919082;4.886951;17.5745;22.7807;110.2281;1.0;-17.3279;2.8183;-38.2736;265.351;50.6239;-104.7247;0.0;67.5114;12.843671;77.66302;;NaN;;25.326;;0 / 0;3846;2017-10-03 21:22:48:953
16.396591;-21.353458;1.568961;5.022705;-8.3364;-1.203013;-8.19955;-8.919082;4.886951;17.5745;22.7807;110.2281;1.0;-17.3279;2.8183;-38.588;263.5281;58.22;-103.4694;0.0;67.5114;12.843671;77.66302;;NaN;;25.326;;0 / 0;3857;2017-10-03 21:22:48:964
16.396591;-21.353458;1.568961;5.022705;-8.3364;-1.203013;-8.19955;-8.919082;4.886951;17.5745;22.7807;110.2281;1.0;-16.5802;3.1265;-38.588;263.5281;58.22;-103.4694;0.0;67.5114;12.843671;77.66302;;NaN;;25.326;;0 / 0;3866;2017-10-03 21:22:48:973
16.396591;-21.353458;1.568961;5.022705;-8.3364;-1.203013;-8.19955;-8.919082;4.886951;17.5745;22.7807;110.2281;1.0;-16.5802;3.1265;-38.588;263.5281;58.22;-103.4694;0.0;67.5114;12.843671;77.66302;;NaN;;25.326;;0 / 0;3877;2017-10-03 21:22:48:984
8.018113;-7.64977;-0.569024;5.052099;-8.354546;-0.920999;6.117262;-4.584972;-1.027537;37.9151;-5.6451;0.9285;1.0;-16.5802;3.1265;-38.588;263.5281;58.22;-103.4694;0.0;67.5114;12.843671;77.66302;;NaN;;25.326;;0 / 0;3886;2017-10-03 21:22:48:993
8.018113;-7.64977;-0.569024;5.052099;-8.354546;-0.920999;6.117262;-4.584972;-1.027537;37.9151;-5.6451;0.9285;1.0;-16.5802;3.1265;-38.588;263.5281;58.22;-103.4694;0.0;67.5114;12.843671;77.66302;;NaN;;25.326;;0 / 0;3896;2017-10-03 21:22:49:003
8.018113;-7.64977;-0.569024;5.052099;-8.354546;-0.920999;6.117262;-4.584972;-1.027537;37.9151;-5.6451;0.9285;1.0;-16.5802;3.1265;-38.588;263.5281;58.22;-103.4694;0.0;67.5114;12.843671;77.66302;;NaN;;25.326;;0 / 0;3907;2017-10-03 21:22:49:014
8.018113;-7.64977;-0.569024;5.052099;-8.354546;-0.920999;6.117262;-4.584972;-1.027537;37.9151;-5.6451;0.9285;1.0;-16.5802;3.1265;-38.588;263.5281;58.22;-103.4694;0.0;67.5114;12.843671;77.66302;;NaN;;25.326;;0 / 0;3917;2017-10-03 21:22:49:024
3.470566;-6.120747;-1.320367;5.052099;-8.354546;-0.920999;6.117262;-4.584972;-1.027537;37.9151;-5.6451;0.9285;1.0;-16.1942;3.0701;-38.7497;261.8848;58.4219;-100.3316;0.0;67.5114;12.843671;77.66302;;NaN;;25.326;;0 / 0;3929;2017-10-03 21:22:49:036
3.470566;-6.120747;-1.320367;5.052099;-8.354546;-0.920999;6.117262;-4.584972;-1.027537;37.9151;-5.6451;0.9285;1.0;-16.1942;3.0701;-38.7497;261.8848;58.4219;-100.3316;0.0;67.5114;12.843671;77.66302;;NaN;;25.326;;0 / 0;3942;2017-10-03 21:22:49:049
3.470566;-6.120747;-1.320367;5.052099;-8.354546;-0.920999;6.117262;-4.584972;-1.027537;37.9151;-5.6451;0.9285;1.0;-16.1942;3.0701;-38.7497;261.8848;58.4219;-100.3316;0.0;67.5114;12.843671;77.66302;;NaN;;25.326;;0 / 0;3947;2017-10-03 21:22:49:054
3.470566;-6.120747;-1.320367;3.99412;-8.918482;-0.82346;7.125021;-3.922249;-1.115273;47.1263;-66.4345;125.1037;1.0;-16.1942;3.0701;-38.7497;261.8848;58.4219;-100.3316;0.0;67.5114;12.843671;77.66302;;NaN;;25.326;;0 / 0;3957;2017-10-03 21:22:49:064
3.541154;-6.939091;-1.985574;3.99412;-8.918482;-0.82346;7.125021;-3.922249;-1.115273;47.1263;-66.4345;125.1037;1.0;-16.1942;3.0701;-38.7497;261.8848;58.4219;-100.3316;0.0;72.38654;12.843671;77.66302;;NaN;;25.326;;0 / 0;3966;2017-10-03 21:22:49:073
3.541154;-6.939091;-1.985574;3.99412;-8.918482;-0.82346;7.125021;-3.922249;-1.115273;47.1263;-66.4345;125.1037;1.0;-16.1942;3.0701;-38.7497;261.8848;58.4219;-100.3316;0.0;72.38654;12.843671;77.66302;;NaN;;25.326;;0 / 0;3977;2017-10-03 21:22:49:084
3.541154;-6.939091;-1.985574;3.99412;-8.918482;-0.82346;7.125021;-3.922249;-1.115273;47.1263;-66.4345;125.1037;1.0;-16.1942;3.0701;-38.7497;261.8848;58.4219;-100.3316;0.0;72.38654;12.843671;77.66302;;NaN;;25.326;;0 / 0;3986;2017-10-03 21:22:49:093
3.541154;-6.939091;-1.985574;3.99412;-8.918482;-0.82346;7.125021;-3.922249;-1.115273;47.1263;-66.4345;125.1037;1.0;-16.069;2.8885;-38.7894;261.9733;65.427;-101.6493;0.0;72.38654;12.843671;77.66302;;NaN;;25.326;;0 / 0;3996;2017-10-03 21:22:49:103
3.563874;-7.824437;1.607246;3.232934;-9.245518;-0.48879;-0.670617;5.275613;-1.515984;64.0434;-60.5017;81.8023;1.0;-16.069;2.8885;-38.7894;261.9733;65.427;-101.6493;0.0;72.38654;12.843671;77.66302;;NaN;;25.326;;0 / 0;4007;2017-10-03 21:22:49:114
3.563874;-7.824437;1.607246;3.232934;-9.245518;-0.48879;-0.670617;5.275613;-1.515984;64.0434;-60.5017;81.8023;1.0;-16.069;2.8885;-38.7894;261.9733;65.427;-101.6493;0.0;72.38654;12.843671;77.66302;;NaN;;25.326;;0 / 0;4017;2017-10-03 21:22:49:124
3.563874;-7.824437;1.607246;3.232934;-9.245518;-0.48879;-0.670617;5.275613;-1.515984;64.0434;-60.5017;81.8023;1.0;-16.069;2.8885;-38.7894;261.9733;65.427;-101.6493;0.0;72.38654;12.843671;77.66302;;NaN;;25.326;;0 / 0;4026;2017-10-03 21:22:49:133
5.147935;-9.377384;2.615821;3.232934;-9.245518;-0.48879;-0.670617;5.275613;-1.515984;64.0434;-60.5017;81.8023;1.0;-16.069;2.8885;-38.7894;261.9733;65.427;-101.6493;0.0;72.38654;12.843671;77.66302;;NaN;;25.326;;0 / 0;4036;2017-10-03 21:22:49:143
5.147935;-9.377384;2.615821;3.232934;-9.245518;-0.48879;-0.670617;5.275613;-1.515984;64.0434;-60.5017;81.8023;1.0;-16.069;2.8885;-38.7894;261.9733;65.427;-101.6493;0.0;72.38654;12.843671;77.66302;;NaN;;25.326;;0 / 0;4047;2017-10-03 21:22:49:154
5.147935;-9.377384;2.615821;2.903784;-9.361762;-0.309573;-0.387053;3.867791;0.691419;31.4936;-40.1908;35.3561;1.0;-16.069;2.8885;-38.7894;261.9733;65.427;-101.6493;0.0;72.38654;12.843671;77.66302;;NaN;;25.326;;0 / 0;4056;2017-10-03 21:22:49:163
5.147935;-9.377384;2.615821;2.903784;-9.361762;-0.309573;-0.387053;3.867791;0.691419;31.4936;-40.1908;35.3561;1.0;-16.011;2.7542;-38.7299;255.6593;72.6756;-96.0853;0.0;72.38654;12.843671;77.66302;;NaN;;25.326;;0 / 0;4066;2017-10-03 21:22:49:173
5.78801;-11.247364;-0.28428;2.903784;-9.361762;-0.309573;-0.387053;3.867791;0.691419;31.4936;-40.1908;35.3561;1.0;-16.011;2.7542;-38.7299;255.6593;72.6756;-96.0853;0.0;72.38654;12.843671;77.66302;;NaN;;25.326;;0 / 0;4078;2017-10-03 21:22:49:185
5.78801;-11.247364;-0.28428;2.903784;-9.361762;-0.309573;-0.387053;3.867791;0.691419;31.4936;-40.1908;35.3561;1.0;-16.011;2.7542;-38.7299;255.6593;72.6756;-96.0853;0.0;72.38654;12.843671;77.66302;;NaN;;25.326;;0 / 0;4087;2017-10-03 21:22:49:194
5.78801;-11.247364;-0.28428;2.903784;-9.361762;-0.309573;-0.387053;3.867791;0.691419;31.4936;-40.1908;35.3561;1.0;-16.011;2.7542;-38.7299;255.6593;72.6756;-96.0853;0.0;72.38654;12.843671;77.66302;;NaN;;25.326;;0 / 0;4096;2017-10-03 21:22:49:203
5.78801;-11.247364;-0.28428;2.903784;-9.361762;-0.309573;-0.387053;3.867791;0.691419;31.4936;-40.1908;35.3561;1.0;-16.011;2.7542;-38.7299;255.6593;72.6756;-96.0853;0.0;72.38654;12.843671;77.66302;;NaN;;25.326;;0 / 0;4108;2017-10-03 21:22:49:215
6.607545;-11.112172;-4.994546;2.717539;-9.40175;0.626492;1.427052;1.631219;0.327873;69.4332;102.3536;20.9719;1.0;-16.011;2.7542;-38.7299;255.6593;72.6756;-96.0853;0.0;72.38654;12.843671;77.66302;;NaN;;25.326;;0 / 0;4117;2017-10-03 21:22:49:224
6.607545;-11.112172;-4.994546;2.717539;-9.40175;0.626492;1.427052;1.631219;0.327873;69.4332;102.3536;20.9719;1.0;-15.7043;2.4933;-38.7207;236.4963;73.4782;-77.018;0.0;72.38654;12.843671;77.66302;;NaN;;25.326;;0 / 0;4126;2017-10-03 21:22:49:233
6.607545;-11.112172;-4.994546;2.717539;-9.40175;0.626492;1.427052;1.631219;0.327873;69.4332;102.3536;20.9719;1.0;-15.7043;2.4933;-38.7207;236.4963;73.4782;-77.018;0.0;72.38654;12.843671;77.66302;;NaN;;25.326;;0 / 0;4137;2017-10-03 21:22:49:244
6.607545;-11.112172;-4.994546;2.717539;-9.40175;0.626492;1.427052;1.631219;0.327873;69.4332;102.3536;20.9719;1.0;-15.7043;2.4933;-38.7207;236.4963;73.4782;-77.018;0.0;72.38654;12.843671;77.66302;;NaN;;25.326;;0 / 0;4147;2017-10-03 21:22:49:254
5.695878;-9.99593;-2.333733;2.717539;-9.40175;0.626492;1.427052;1.631219;0.327873;69.4332;102.3536;20.9719;1.0;-15.7043;2.4933;-38.7207;236.4963;73.4782;-77.018;0.0;72.38654;12.843671;77.66302;;NaN;;25.326;;0 / 0;4157;2017-10-03 21:22:49:264
5.695878;-9.99593;-2.333733;2.717539;-9.40175;0.626492;1.427052;1.631219;0.327873;69.4332;102.3536;20.9719;1.0;-15.7043;2.4933;-38.7207;236.4963;73.4782;-77.018;0.0;72.38654;12.843671;77.66302;;NaN;;25.326;;0 / 0;4166;2017-10-03 21:22:49:273
5.695878;-9.99593;-2.333733;2.717539;-9.40175;0.626492;1.427052;1.631219;0.327873;69.4332;102.3536;20.9719;1.0;-15.7043;2.4933;-38.7207;236.4963;73.4782;-77.018;0.0;72.38654;12.843671;77.66302;;NaN;;25.326;;0 / 0;4177;2017-10-03 21:22:49:284
5.695878;-9.99593;-2.333733;2.717539;-9.40175;0.626492;1.427052;1.631219;0.327873;69.4332;102.3536;20.9719;1.0;-15.7043;2.4933;-38.7207;236.4963;73.4782;-77.018;0.0;72.38654;12.843671;77.66302;;NaN;;25.326;;0 / 0;4186;2017-10-03 21:22:49:293
5.695878;-9.99593;-2.333733;2.717539;-9.40175;0.626492;1.427052;1.631219;0.327873;69.4332;102.3536;20.9719;1.0;-15.7043;2.4933;-38.7207;236.4963;73.4782;-77.018;0.0;72.38654;12.843671;77.66302;;NaN;;25.326;;0 / 0;4196;2017-10-03 21:22:49:303
5.695878;-9.99593;-2.333733;2.717539;-9.40175;0.626492;1.427052;1.631219;0.327873;69.4332;102.3536;20.9719;1.0;-15.7043;2.4933;-38.7207;236.4963;73.4782;-77.018;0.0;72.38654;12.843671;77.66302;;NaN;;25.326;;0 / 0;4206;2017-10-03 21:22:49:313
5.213731;-9.908588;-1.810891;2.816473;-9.382136;0.461915;1.986844;0.858686;-4.385119;-0.9757;-29.7136;-4.7184;1.0;-15.6281;2.3285;-38.8397;240.1951;73.0799;-80.6861;0.0;72.38654;12.843671;77.66302;;NaN;;25.326;;0 / 0;4218;2017-10-03 21:22:49:325
5.213731;-9.908588;-1.810891;2.816473;-9.382136;0.461915;1.986844;0.858686;-4.385119;-0.9757;-29.7136;-4.7184;1.0;-15.6281;2.3285;-38.8397;240.1951;73.0799;-80.6861;0.0;72.38654;12.843671;77.66302;;NaN;;25.326;;0 / 0;4226;2017-10-03 21:22:49:333
5.213731;-9.908588;-1.810891;2.816473;-9.382136;0.461915;1.986844;0.858686;-4.385119;-0.9757;-29.7136;-4.7184;1.0;-15.6281;2.3285;-38.8397;240.1951;73.0799;-80.6861;0.0;72.38654;12.843671;77.66302;;NaN;;25.326;;0 / 0;4237;2017-10-03 21:22:49:344
5.134766;-6.492833;1.21482;2.816473;-9.382136;0.461915;1.986844;0.858686;-4.385119;-0.9757;-29.7136;-4.7184;1.0;-15.6281;2.3285;-38.8397;240.1951;73.0799;-80.6861;0.0;72.38654;12.843671;77.66302;;NaN;;25.326;;0 / 0;4246;2017-10-03 21:22:49:353
5.134766;-6.492833;1.21482;2.816473;-9.382136;0.461915;1.986844;0.858686;-4.385119;-0.9757;-29.7136;-4.7184;1.0;-15.6281;2.3285;-38.8397;240.1951;73.0799;-80.6861;0.0;72.38654;12.843671;77.66302;;NaN;;25.326;;0 / 0;4257;2017-10-03 21:22:49:364
5.134766;-6.492833;1.21482;2.816473;-9.382136;0.461915;1.986844;0.858686;-4.385119;-0.9757;-29.7136;-4.7184;1.0;-15.4449;2.2659;-39.1449;241.4509;73.0799;-80.6861;0.0;72.38654;12.843671;77.66302;;NaN;;25.326;;0 / 0;4267;2017-10-03 21:22:49:374
5.134766;-6.492833;1.21482;2.816473;-9.382136;0.461915;1.986844;0.858686;-4.385119;-0.9757;-29.7136;-4.7184;1.0;-15.4449;2.2659;-39.1449;241.4509;73.0799;-80.6861;0.0;72.38654;12.843671;77.66302;;NaN;;25.326;;0 / 0;4276;2017-10-03 21:22:49:383
1.917618;-5.913777;-2.519173;4.3046;-8.781526;-0.725004;-1.870929;4.375251;0.463228;-70.5505;53.7148;-102.6316;1.0;-15.4449;2.2659;-39.1449;241.4509;73.0799;-80.6861;0.0;66.76657;12.843671;77.66302;;NaN;;25.326;;0 / 0;4296;2017-10-03 21:22:49:403
1.917618;-5.913777;-2.519173;4.3046;-8.781526;-0.725004;-1.870929;4.375251;0.463228;-70.5505;53.7148;-102.6316;1.0;-15.4449;2.2659;-39.1449;241.4509;73.0799;-80.6861;0.0;66.76657;12.843671;77.66302;;NaN;;25.326;;0 / 0;4297;2017-10-03 21:22:49:404
1.917618;-5.913777;-2.519173;4.3046;-8.781526;-0.725004;-1.870929;4.375251;0.463228;-70.5505;53.7148;-102.6316;1.0;-15.4449;2.2659;-39.1449;241.4509;73.0799;-80.6861;0.0;66.76657;12.843671;77.66302;;NaN;;25.326;;0 / 0;4307;2017-10-03 21:22:49:414
1.917618;-5.913777;-2.519173;4.3046;-8.781526;-0.725004;-1.870929;4.375251;0.463228;-70.5505;53.7148;-102.6316;1.0;-15.4449;2.2659;-39.1449;241.4509;73.0799;-80.6861;0.0;66.76657;12.843671;77.66302;;NaN;;25.326;;0 / 0;4316;2017-10-03 21:22:49:423
6.221116;-8.104405;2.737861;4.3046;-8.781526;-0.725004;-1.870929;4.375251;0.463228;-70.5505;53.7148;-102.6316;1.0;-15.4449;2.2659;-39.1449;241.4509;73.0799;-80.6861;0.0;66.76657;12.843671;77.66302;;NaN;;25.326;;0 / 0;4326;2017-10-03 21:22:49:433
6.221116;-8.104405;2.737861;4.3046;-8.781526;-0.725004;-1.870929;4.375251;0.463228;-70.5505;53.7148;-102.6316;1.0;-15.2664;2.2705;-39.1922;260.9057;63.5684;-99.5603;0.0;66.76657;12.843671;77.66302;;NaN;;25.326;;0 / 0;4339;2017-10-03 21:22:49:446
6.221116;-8.104405;2.737861;5.25212;-8.215863;-1.041734;-2.755078;3.75553;0.764554;-59.8582;39.1845;-108.6046;1.0;-15.2664;2.2705;-39.1922;260.9057;63.5684;-99.5603;0.0;66.76657;12.843671;77.66302;;NaN;;25.326;;0 / 0;4348;2017-10-03 21:22:49:455
6.221116;-8.104405;2.737861;5.25212;-8.215863;-1.041734;-2.755078;3.75553;0.764554;-59.8582;39.1845;-108.6046;1.0;-15.2664;2.2705;-39.1922;260.9057;63.5684;-99.5603;0.0;66.76657;12.843671;77.66302;;NaN;;25.326;;0 / 0;4356;2017-10-03 21:22:49:463
8.997988;-11.70081;-0.031838;5.25212;-8.215863;-1.041734;-2.755078;3.75553;0.764554;-59.8582;39.1845;-108.6046;1.0;-15.2664;2.2705;-39.1922;260.9057;63.5684;-99.5603;0.0;66.76657;12.843671;77.66302;;NaN;;25.326;;0 / 0;4366;2017-10-03 21:22:49:473
8.997988;-11.70081;-0.031838;5.25212;-8.215863;-1.041734;-2.755078;3.75553;0.764554;-59.8582;39.1845;-108.6046;1.0;-15.2664;2.2705;-39.1922;260.9057;63.5684;-99.5603;0.0;66.76657;12.843671;77.66302;;NaN;;25.326;;0 / 0;4377;2017-10-03 21:22:49:484
8.997988;-11.70081;-0.031838;5.25212;-8.215863;-1.041734;-2.755078;3.75553;0.764554;-59.8582;39.1845;-108.6046;1.0;-15.2664;2.2705;-39.1922;260.9057;63.5684;-99.5603;0.0;66.76657;12.843671;77.66302;;NaN;;25.326;;0 / 0;4386;2017-10-03 21:22:49:493
8.997988;-11.70081;-0.031838;5.25212;-8.215863;-1.041734;-2.755078;3.75553;0.764554;-59.8582;39.1845;-108.6046;1.0;-15.0375;2.2736;-39.2349;263.2436;56.9069;-101.2188;0.0;66.76657;12.843671;77.66302;;NaN;;25.326;;0 / 0;4396;2017-10-03 21:22:49:503
7.971452;-13.832814;-0.46972;6.194091;-7.494505;-1.279074;-1.539098;1.388492;1.531856;-45.6182;17.5718;-118.3526;1.0;-15.0375;2.2736;-39.2349;263.2436;56.9069;-101.2188;0.0;66.76657;12.843671;77.66302;;NaN;;25.326;;0 / 0;4407;2017-10-03 21:22:49:514
7.971452;-13.832814;-0.46972;6.194091;-7.494505;-1.279074;-1.539098;1.388492;1.531856;-45.6182;17.5718;-118.3526;1.0;-15.0375;2.2736;-39.2349;263.2436;56.9069;-101.2188;0.0;66.76657;12.843671;77.66302;;NaN;;25.326;;0 / 0;4417;2017-10-03 21:22:49:524
7.971452;-13.832814;-0.46972;6.194091;-7.494505;-1.279074;-1.539098;1.388492;1.531856;-45.6182;17.5718;-118.3526;1.0;-15.0375;2.2736;-39.2349;263.2436;56.9069;-101.2188;0.0;66.76657;12.843671;77.66302;;NaN;;25.326;;0 / 0;4426;2017-10-03 21:22:49:533
7.632874;-12.748876;-0.504418;6.194091;-7.494505;-1.279074;-1.539098;1.388492;1.531856;-45.6182;17.5718;-118.3526;1.0;-15.0375;2.2736;-39.2349;263.2436;56.9069;-101.2188;0.0;66.76657;12.843671;77.66302;;NaN;;25.326;;0 / 0;4436;2017-10-03 21:22:49:543
7.632874;-12.748876;-0.504418;6.194091;-7.494505;-1.279074;-1.539098;1.388492;1.531856;-45.6182;17.5718;-118.3526;1.0;-15.0375;2.2736;-39.2349;263.2436;56.9069;-101.2188;0.0;66.76657;12.843671;77.66302;;NaN;;25.326;;0 / 0;4446;2017-10-03 21:22:49:553
7.632874;-12.748876;-0.504418;6.617026;-7.116347;-1.320212;0.286091;-3.9166;0.581752;-24.8335;18.9016;-59.2375;1.0;-15.0375;2.2736;-39.2349;263.2436;56.9069;-101.2188;0.0;66.76657;12.843671;77.66302;;NaN;;25.326;;0 / 0;4456;2017-10-03 21:22:49:563
7.632874;-12.748876;-0.504418;6.617026;-7.116347;-1.320212;0.286091;-3.9166;0.581752;-24.8335;18.9016;-59.2375;1.0;-14.7644;2.2766;-39.3768;264.7816;46.5242;-101.2833;0.0;66.76657;12.843671;77.66302;;NaN;;25.326;;0 / 0;4466;2017-10-03 21:22:49:573
12.656602;-13.38416;-0.854959;6.617026;-7.116347;-1.320212;0.286091;-3.9166;0.581752;-24.8335;18.9016;-59.2375;1.0;-14.7644;2.2766;-39.3768;264.7816;46.5242;-101.2833;0.0;66.76657;12.843671;77.66302;;NaN;;25.326;;0 / 0;4477;2017-10-03 21:22:49:584
12.656602;-13.38416;-0.854959;6.617026;-7.116347;-1.320212;0.286091;-3.9166;0.581752;-24.8335;18.9016;-59.2375;1.0;-14.7644;2.2766;-39.3768;264.7816;46.5242;-101.2833;0.0;66.76657;12.843671;77.66302;;NaN;;25.326;;0 / 0;4487;2017-10-03 21:22:49:594
12.656602;-13.38416;-0.854959;6.617026;-7.116347;-1.320212;0.286091;-3.9166;0.581752;-24.8335;18.9016;-59.2375;1.0;-14.7644;2.2766;-39.3768;264.7816;46.5242;-101.2833;0.0;66.76657;12.843671;77.66302;;NaN;;25.326;;0 / 0;4497;2017-10-03 21:22:49:604
12.656602;-13.38416;-0.854959;6.617026;-7.116347;-1.320212;0.286091;-3.9166;0.581752;-24.8335;18.9016;-59.2375;1.0;-14.7644;2.2766;-39.3768;264.7816;46.5242;-101.2833;0.0;66.76657;12.843671;77.66302;;NaN;;25.326;;0 / 0;4506;2017-10-03 21:22:49:613
15.230088;-19.558842;-2.908013;6.684168;-7.134489;-0.768994;2.77175;-3.972322;-0.775033;7.8273;75.7943;0.4389;1.0;-14.7644;2.2766;-39.3768;264.7816;46.5242;-101.2833;0.0;66.76657;12.843671;77.66302;;NaN;;25.326;;0 / 0;4516;2017-10-03 21:22:49:623
15.230088;-19.558842;-2.908013;6.684168;-7.134489;-0.768994;2.77175;-3.972322;-0.775033;7.8273;75.7943;0.4389;1.0;-14.3997;2.2797;-39.4745;262.2322;46.6785;-96.5629;0.0;66.76657;12.843671;77.66302;;NaN;;25.326;;0 / 0;4527;2017-10-03 21:22:49:634
15.230088;-19.558842;-2.908013;6.684168;-7.134489;-0.768994;2.77175;-3.972322;-0.775033;7.8273;75.7943;0.4389;1.0;-14.3997;2.2797;-39.4745;262.2322;46.6785;-96.5629;0.0;66.76657;12.843671;77.66302;;NaN;;25.326;;0 / 0;4536;2017-10-03 21:22:49:643
12.918626;-21.800922;-2.969018;6.684168;-7.134489;-0.768994;2.77175;-3.972322;-0.775033;7.8273;75.7943;0.4389;1.0;-14.3997;2.2797;-39.4745;262.2322;46.6785;-96.5629;0.0;66.76657;12.843671;77.66302;;NaN;;25.326;;0 / 0;4546;2017-10-03 21:22:49:653
12.918626;-21.800922;-2.969018;6.684168;-7.134489;-0.768994;2.77175;-3.972322;-0.775033;7.8273;75.7943;0.4389;1.0;-14.3997;2.2797;-39.4745;262.2322;46.6785;-96.5629;0.0;66.76657;12.843671;77.66302;;NaN;;25.326;;0 / 0;4556;2017-10-03 21:22:49:663
12.918626;-21.800922;-2.969018;6.684168;-7.134489;-0.768994;2.77175;-3.972322;-0.775033;7.8273;75.7943;0.4389;1.0;-14.3997;2.2797;-39.4745;262.2322;46.6785;-96.5629;0.0;66.76657;12.843671;77.66302;;NaN;;25.326;;0 / 0;4566;2017-10-03 21:22:49:673
12.918626;-21.800922;-2.969018;6.684168;-7.134489;-0.768994;2.77175;-3.972322;-0.775033;7.8273;75.7943;0.4389;1.0;-14.3997;2.2797;-39.4745;262.2322;46.6785;-96.5629;0.0;66.76657;12.843671;77.66302;;NaN;;25.326;;0 / 0;4577;2017-10-03 21:22:49:684
10.690904;-24.261936;-1.073907;5.644667;-7.999117;-0.567655;7.549015;-9.768576;-2.600914;32.0059;-2.1804;138.7886;1.0;-14.3997;2.2797;-39.4745;262.2322;46.6785;-96.5629;0.0;66.76657;12.843671;77.66302;;NaN;;25.326;;0 / 0;4586;2017-10-03 21:22:49:693
10.690904;-24.261936;-1.073907;5.644667;-7.999117;-0.567655;7.549015;-9.768576;-2.600914;32.0059;-2.1804;138.7886;1.0;-13.7558;2.2949;-39.4806;260.0927;54.6549;-95.7426;0.0;59.3006;12.843671;77.66302;;NaN;;25.326;;0 / 0;4596;2017-10-03 21:22:49:703
10.690904;-24.261936;-1.073907;5.644667;-7.999117;-0.567655;7.549015;-9.768576;-2.600914;32.0059;-2.1804;138.7886;1.0;-13.7558;2.2949;-39.4806;260.0927;54.6549;-95.7426;0.0;59.3006;12.843671;77.66302;;NaN;;25.326;;0 / 0;4606;2017-10-03 21:22:49:713
10.690904;-24.261936;-1.073907;5.644667;-7.999117;-0.567655;7.549015;-9.768576;-2.600914;32.0059;-2.1804;138.7886;1.0;-13.7558;2.2949;-39.4806;260.0927;54.6549;-95.7426;0.0;59.3006;12.843671;77.66302;;NaN;;25.326;;0 / 0;4616;2017-10-03 21:22:49:723
11.305864;-25.518162;5.458503;3.211958;-9.26257;-0.241822;5.655189;-14.941992;1.955088;86.8809;-108.2715;274.0242;1.0;-13.7558;2.2949;-39.4806;260.0927;54.6549;-95.7426;0.0;59.3006;12.843671;77.66302;;NaN;;25.326;;0 / 0;4627;2017-10-03 21:22:49:734
11.305864;-25.518162;5.458503;3.211958;-9.26257;-0.241822;5.655189;-14.941992;1.955088;86.8809;-108.2715;274.0242;1.0;-13.7558;2.2949;-39.4806;260.0927;54.6549;-95.7426;0.0;59.3006;12.843671;77.66302;;NaN;;25.326;;0 / 0;4636;2017-10-03 21:22:49:743
11.305864;-25.518162;5.458503;3.211958;-9.26257;-0.241822;5.655189;-14.941992;1.955088;86.8809;-108.2715;274.0242;1.0;-13.7558;2.2949;-39.4806;260.0927;54.6549;-95.7426;0.0;59.3006;12.843671;77.66302;;NaN;;25.326;;0 / 0;4646;2017-10-03 21:22:49:753
11.305864;-25.518162;5.458503;3.211958;-9.26257;-0.241822;5.655189;-14.941992;1.955088;86.8809;-108.2715;274.0242;1.0;-13.7558;2.2949;-39.4806;260.0927;54.6549;-95.7426;0.0;59.3006;12.843671;77.66302;;NaN;;25.326;;0 / 0;4657;2017-10-03 21:22:49:764
11.305864;-25.518162;5.458503;3.211958;-9.26257;-0.241822;5.655189;-14.941992;1.955088;86.8809;-108.2715;274.0242;1.0;-13.7558;2.2949;-39.4806;260.0927;54.6549;-95.7426;0.0;59.3006;12.843671;77.66302;;NaN;;25.326;;0 / 0;4667;2017-10-03 21:22:49:774
11.305864;-25.518162;5.458503;3.211958;-9.26257;-0.241822;5.655189;-14.941992;1.955088;86.8809;-108.2715;274.0242;1.0;-13.7558;2.2949;-39.4806;260.0927;54.6549;-95.7426;0.0;59.3006;12.843671;77.66302;;NaN;;25.326;;0 / 0;4676;2017-10-03 21:22:49:783
11.305864;-25.518162;5.458503;3.211958;-9.26257;-0.241822;5.655189;-14.941992;1.955088;86.8809;-108.2715;274.0242;1.0;-13.7558;2.2949;-39.4806;260.0927;54.6549;-95.7426;0.0;59.3006;12.843671;77.66302;;NaN;;25.326;;0 / 0;4687;2017-10-03 21:22:49:794
11.305864;-25.518162;5.458503;3.211958;-9.26257;-0.241822;5.655189;-14.941992;1.955088;86.8809;-108.2715;274.0242;1.0;-13.7558;2.2949;-39.4806;260.0927;54.6549;-95.7426;0.0;59.3006;12.843671;77.66302;;NaN;;25.326;;0 / 0;4696;2017-10-03 21:22:49:803
11.305864;-25.518162;5.458503;3.211958;-9.26257;-0.241822;5.655189;-14.941992;1.955088;86.8809;-108.2715;274.0242;1.0;-13.7558;2.2949;-39.4806;260.0927;54.6549;-95.7426;0.0;59.3006;12.843671;77.66302;;NaN;;25.326;;0 / 0;4710;2017-10-03 21:22:49:817
11.305864;-25.518162;5.458503;3.211958;-9.26257;-0.241822;5.655189;-14.941992;1.955088;86.8809;-108.2715;274.0242;1.0;-13.7558;2.2949;-39.4806;260.0927;54.6549;-95.7426;0.0;59.3006;12.843671;77.66302;;NaN;;25.326;;0 / 0;4717;2017-10-03 21:22:49:824
11.305864;-25.518162;5.458503;3.211958;-9.26257;-0.241822;5.655189;-14.941992;1.955088;86.8809;-108.2715;274.0242;1.0;-13.7558;2.2949;-39.4806;260.0927;54.6549;-95.7426;0.0;59.3006;12.843671;77.66302;;NaN;;25.326;;0 / 0;4727;2017-10-03 21:22:49:834
11.305864;-25.518162;5.458503;3.211958;-9.26257;-0.241822;5.655189;-14.941992;1.955088;86.8809;-108.2715;274.0242;1.0;-13.7558;2.2949;-39.4806;260.0927;54.6549;-95.7426;0.0;59.3006;12.843671;77.66302;;NaN;;25.326;;0 / 0;4737;2017-10-03 21:22:49:844
8.432084;-12.553852;-1.518975;1.423365;-9.589468;1.478691;6.02571;-2.620399;-1.465612;204.4353;-91.1683;201.6141;1.0;-13.5071;2.2934;-39.3433;256.2635;70.8249;-94.3056;0.0;59.3006;12.843671;77.66302;;NaN;;25.326;;0 / 0;4747;2017-10-03 21:22:49:854
8.432084;-12.553852;-1.518975;1.423365;-9.589468;1.478691;6.02571;-2.620399;-1.465612;204.4353;-91.1683;201.6141;1.0;-13.5071;2.2934;-39.3433;256.2635;70.8249;-94.3056;0.0;59.3006;12.843671;77.66302;;NaN;;25.326;;0 / 0;4757;2017-10-03 21:22:49:864
8.432084;-12.553852;-1.518975;1.423365;-9.589468;1.478691;6.02571;-2.620399;-1.465612;204.4353;-91.1683;201.6141;1.0;-13.5071;2.2934;-39.3433;256.2635;70.8249;-94.3056;0.0;59.3006;12.843671;77.66302;;NaN;;25.326;;0 / 0;4766;2017-10-03 21:22:49:873
0.307252;-1.933309;7.769965;1.423365;-9.589468;1.478691;6.02571;-2.620399;-1.465612;204.4353;-91.1683;201.6141;1.0;-13.5071;2.2934;-39.3433;256.2635;70.8249;-94.3056;0.0;59.3006;12.843671;77.66302;;NaN;;25.326;;0 / 0;4776;2017-10-03 21:22:49:883
0.307252;-1.933309;7.769965;1.423365;-9.589468;1.478691;6.02571;-2.620399;-1.465612;204.4353;-91.1683;201.6141;1.0;-13.5071;2.2934;-39.3433;256.2635;70.8249;-94.3056;0.0;59.3006;12.843671;77.66302;;NaN;;25.326;;0 / 0;4786;2017-10-03 21:22:49:893
0.307252;-1.933309;7.769965;1.915313;-9.617622;0.057291;0.572925;9.80164;-7.891665;-88.931;-127.09;-99.4869;1.0;-12.851;1.8478;-39.8193;251.1389;78.7322;-88.2867;0.0;59.3006;12.843671;77.66302;;NaN;;25.326;;0 / 0;4806;2017-10-03 21:22:49:913
0.307252;-1.933309;7.769965;1.915313;-9.617622;0.057291;0.572925;9.80164;-7.891665;-88.931;-127.09;-99.4869;1.0;-12.851;1.8478;-39.8193;251.1389;78.7322;-88.2867;0.0;59.3006;12.843671;77.66302;;NaN;;25.326;;0 / 0;4806;2017-10-03 21:22:49:913
0.307252;-1.933309;7.769965;1.915313;-9.617622;0.057291;0.572925;9.80164;-7.891665;-88.931;-127.09;-99.4869;1.0;-12.851;1.8478;-39.8193;251.1389;78.7322;-88.2867;0.0;59.3006;12.843671;77.66302;;NaN;;25.326;;0 / 0;4817;2017-10-03 21:22:49:924
-0.633132;0.185542;2.759391;1.915313;-9.617622;0.057291;0.572925;9.80164;-7.891665;-88.931;-127.09;-99.4869;1.0;-12.851;1.8478;-39.8193;251.1389;78.7322;-88.2867;0.0;59.3006;12.843671;77.66302;;NaN;;25.326;;0 / 0;4826;2017-10-03 21:22:49:933
-0.633132;0.185542;2.759391;1.915313;-9.617622;0.057291;0.572925;9.80164;-7.891665;-88.931;-127.09;-99.4869;1.0;-12.851;1.8478;-39.8193;251.1389;78.7322;-88.2867;0.0;59.3006;12.843671;77.66302;;NaN;;25.326;;0 / 0;4844;2017-10-03 21:22:49:951
-0.633132;0.185542;2.759391;1.915313;-9.617622;0.057291;0.572925;9.80164;-7.891665;-88.931;-127.09;-99.4869;1.0;-12.851;1.8478;-39.8193;251.1389;78.7322;-88.2867;0.0;59.3006;12.843671;77.66302;;NaN;;25.326;;0 / 0;4847;2017-10-03 21:22:49:954
-1.176299;0.347056;7.74604;2.674924;-9.41343;-0.63442;-4.126982;10.826532;5.55546;-69.1447;-53.0879;-83.417;1.0;-12.851;1.8478;-39.8193;251.1389;78.7322;-88.2867;0.0;59.3006;12.843671;77.66302;;NaN;;25.326;;0 / 0;4856;2017-10-03 21:22:49:963
