sep=;
ACCELEROMETER X (m/s²);ACCELEROMETER Y (m/s²);ACCELEROMETER Z (m/s²);GRAVITY X (m/s²);GRAVITY Y (m/s²);GRAVITY Z (m/s²);LINEAR ACCELERATION X (m/s²);LINEAR ACCELERATION Y (m/s²);LINEAR ACCELERATION Z (m/s²);GYROSCOPE X (°/s);GYROSCOPE Y (°/s);GYROSCOPE Z (°/s);LIGHT (lux);MAGNETIC FIELD X (μT);MAGNETIC FIELD Y (μT);MAGNETIC FIELD Z (μT);ORIENTATION Z (azimuth °);ORIENTATION X (pitch °);ORIENTATION Y (roll °);PROXIMITY (m);SOUND LEVEL (dB);LOCATION Latitude : ;LOCATION Longitude : ;LOCATION Altitude ( m);LOCATION Altitude-google ( m);LOCATION Speed ( Kmh);LOCATION Accuracy ( m);LOCATION ORIENTATION (°);Satellites in range;Time since start in ms ;YYYY-MO-DD HH-MI-SS_SSS
2.780228;0.929698;10.035972;0.438967;3.459441;9.165694;-0.221962;0.009491;1.149531;-33.8349;-24.0904;31.9439;0.0;31.1066;11.5204;-46.1502;309.0599;-20.6565;-2.7419;5.0;40.5168;12.847223;77.66102;;NaN;;926.0;;0 / 0;7;2017-10-03 21:16:54:881
2.780228;0.929698;10.035972;0.438967;3.459441;9.165694;-0.221962;0.009491;1.149531;-33.8349;-24.0904;31.9439;0.0;31.1066;11.5204;-46.1502;309.0599;-20.6565;-2.7419;5.0;40.5168;12.847223;77.66102;;NaN;;926.0;;0 / 0;16;2017-10-03 21:16:54:890
2.780228;0.929698;10.035972;0.543985;3.389775;9.186072;0.229236;-0.378298;0.4236;-6.4529;-8.6316;6.7913;0.0;31.1066;11.5204;-46.1502;309.0599;-20.6565;-2.7419;5.0;40.5168;12.847223;77.66102;;NaN;;926.0;;0 / 0;26;2017-10-03 21:16:54:900
2.780228;0.929698;10.035972;0.543985;3.389775;9.186072;0.229236;-0.378298;0.4236;-6.4529;-8.6316;6.7913;0.0;31.1066;11.5204;-46.1502;309.0599;-20.6565;-2.7419;5.0;40.5168;12.847223;77.66102;;NaN;;926.0;;0 / 0;36;2017-10-03 21:16:54:910
1.433076;1.294612;11.203666;0.543985;3.389775;9.186072;0.229236;-0.378298;0.4236;-6.4529;-8.6316;6.7913;0.0;31.1066;11.5204;-46.1502;309.0599;-20.6565;-2.7419;5.0;40.5168;12.847223;77.66102;;NaN;;926.0;;0 / 0;48;2017-10-03 21:16:54:922
1.433076;1.294612;11.203666;0.543985;3.389775;9.186072;0.229236;-0.378298;0.4236;-6.4529;-8.6316;6.7913;0.0;31.1066;11.5204;-46.1502;309.0599;-20.6565;-2.7419;5.0;40.5168;12.847223;77.66102;;NaN;;926.0;;0 / 0;58;2017-10-03 21:16:54:932
1.433076;1.294612;11.203666;0.543985;3.389775;9.186072;0.229236;-0.378298;0.4236;-6.4529;-8.6316;6.7913;0.0;31.3339;11.3129;-46.0525;307.2086;-20.2221;-3.389;5.0;40.5168;12.847223;77.66102;;NaN;;926.0;;0 / 0;67;2017-10-03 21:16:54:941
1.433076;1.294612;11.203666;0.543985;3.389775;9.186072;0.229236;-0.378298;0.4236;-6.4529;-8.6316;6.7913;0.0;31.3339;11.3129;-46.0525;307.2086;-20.2221;-3.389;5.0;40.5168;12.847223;77.66102;;NaN;;926.0;;0 / 0;77;2017-10-03 21:16:54:951
1.57425;2.452739;8.942452;0.031165;3.773658;9.05146;0.756345;-0.774327;0.558509;44.1337;59.1169;2.684;0.0;31.3339;11.3129;-46.0525;307.2086;-20.2221;-3.389;5.0;40.5168;12.847223;77.66102;;NaN;;926.0;;0 / 0;86;2017-10-03 21:16:54:960
1.57425;2.452739;8.942452;0.031165;3.773658;9.05146;0.756345;-0.774327;0.558509;44.1337;59.1169;2.684;0.0;31.3339;11.3129;-46.0525;307.2086;-20.2221;-3.389;5.0;40.5168;12.847223;77.66102;;NaN;;926.0;;0 / 0;96;2017-10-03 21:16:54:970
1.57425;2.452739;8.942452;0.031165;3.773658;9.05146;0.756345;-0.774327;0.558509;44.1337;59.1169;2.684;0.0;31.3339;11.3129;-46.0525;307.2086;-20.2221;-3.389;5.0;40.5168;12.847223;77.66102;;NaN;;926.0;;0 / 0;106;2017-10-03 21:16:54:980
1.57425;2.452739;8.942452;0.031165;3.773658;9.05146;0.756345;-0.774327;0.558509;44.1337;59.1169;2.684;0.0;31.3339;11.3129;-46.0525;307.2086;-20.2221;-3.389;5.0;40.5168;12.847223;77.66102;;NaN;;926.0;;0 / 0;117;2017-10-03 21:16:54:991
1.916428;0.810069;7.966178;0.031165;3.773658;9.05146;0.756345;-0.774327;0.558509;44.1337;59.1169;2.684;0.0;31.3339;11.3129;-46.0525;307.2086;-20.2221;-3.389;5.0;40.5168;12.847223;77.66102;;NaN;;926.0;;0 / 0;126;2017-10-03 21:16:55:000
1.916428;0.810069;7.966178;-0.249287;4.039471;8.932578;0.175861;-0.078904;0.395787;44.1337;59.1169;2.684;0.0;31.5155;11.0535;-45.9076;310.8544;-22.6317;-0.1973;5.0;40.5168;12.847223;77.66102;;NaN;;926.0;;0 / 0;137;2017-10-03 21:16:55:011
1.916428;0.810069;7.966178;-0.249287;4.039471;8.932578;0.175861;-0.078904;0.395787;30.1805;33.3969;3.623;0.0;31.5155;11.0535;-45.9076;310.8544;-22.6317;-0.1973;5.0;40.5168;12.847223;77.66102;;NaN;;926.0;;0 / 0;146;2017-10-03 21:16:55:020
0.167267;1.659511;10.033576;-0.249287;4.039471;8.932578;0.175861;-0.078904;0.395787;30.1805;33.3969;3.623;0.0;31.5155;11.0535;-45.9076;310.8544;-22.6317;-0.1973;5.0;40.5168;12.847223;77.66102;;NaN;;926.0;;0 / 0;157;2017-10-03 21:16:55:031
0.167267;1.659511;10.033576;-0.249287;4.039471;8.932578;0.175861;-0.078904;0.395787;30.1805;33.3969;3.623;0.0;31.5155;11.0535;-45.9076;310.8544;-22.6317;-0.1973;5.0;40.5168;12.847223;77.66102;;NaN;;926.0;;0 / 0;167;2017-10-03 21:16:55:041
0.167267;1.659511;10.033576;-0.249287;4.039471;8.932578;0.175861;-0.078904;0.395787;30.1805;33.3969;3.623;0.0;31.5155;11.0535;-45.9076;310.8544;-22.6317;-0.1973;5.0;40.5168;12.847223;77.66102;;NaN;;926.0;;0 / 0;176;2017-10-03 21:16:55:050
0.167267;1.659511;10.033576;-0.249287;4.039471;8.932578;0.175861;-0.078904;0.395787;30.1805;33.3969;3.623;0.0;31.5155;11.0535;-45.9076;310.8544;-22.6317;-0.1973;5.0;61.01558;12.847223;77.66102;;NaN;;926.0;;0 / 0;186;2017-10-03 21:16:55:060
0.87793;2.133296;9.685416;-0.973627;4.073707;8.867208;0.759622;-0.628488;-0.687536;4.7;80.9866;-5.2666;0.0;31.5155;11.0535;-45.9076;310.8544;-22.6317;-0.1973;5.0;61.01558;12.847223;77.66102;;NaN;;926.0;;0 / 0;197;2017-10-03 21:16:55:071
0.87793;2.133296;9.685416;-0.973627;4.073707;8.867208;0.759622;-0.628488;-0.687536;4.7;80.9866;-5.2666;0.0;31.7429;10.8719;-45.7367;318.6617;-24.5447;6.266;5.0;61.01558;12.847223;77.66102;;NaN;;926.0;;0 / 0;206;2017-10-03 21:16:55:080
0.87793;2.133296;9.685416;-0.973627;4.073707;8.867208;0.759622;-0.628488;-0.687536;4.7;80.9866;-5.2666;0.0;31.7429;10.8719;-45.7367;318.6617;-24.5447;6.266;5.0;61.01558;12.847223;77.66102;;NaN;;926.0;;0 / 0;217;2017-10-03 21:16:55:091
0.87793;2.133296;9.685416;-0.973627;4.073707;8.867208;0.759622;-0.628488;-0.687536;4.7;80.9866;-5.2666;0.0;31.7429;10.8719;-45.7367;318.6617;-24.5447;6.266;5.0;61.01558;12.847223;77.66102;;NaN;;926.0;;0 / 0;227;2017-10-03 21:16:55:101
0.227082;1.804286;8.439948;-0.973627;4.073707;8.867208;0.759622;-0.628488;-0.687536;4.7;80.9866;-5.2666;0.0;31.7429;10.8719;-45.7367;318.6617;-24.5447;6.266;5.0;61.01558;12.847223;77.66102;;NaN;;926.0;;0 / 0;236;2017-10-03 21:16:55:110
0.227082;1.804286;8.439948;-0.973627;4.073707;8.867208;0.759622;-0.628488;-0.687536;4.7;80.9866;-5.2666;0.0;31.7429;10.8719;-45.7367;318.6617;-24.5447;6.266;5.0;61.01558;12.847223;77.66102;;NaN;;926.0;;0 / 0;246;2017-10-03 21:16:55:120
0.227082;1.804286;8.439948;-1.320007;4.345773;8.691504;0.465503;0.06559;0.304091;30.8161;42.498;3.8162;0.0;31.7429;10.8719;-45.7367;318.6617;-24.5447;6.266;5.0;61.01558;12.847223;77.66102;;NaN;;926.0;;0 / 0;257;2017-10-03 21:16:55:131
0.227082;1.804286;8.439948;-1.320007;4.345773;8.691504;0.465503;0.06559;0.304091;30.8161;42.498;3.8162;0.0;31.7429;10.8719;-45.7367;318.6617;-24.5447;6.266;5.0;61.01558;12.847223;77.66102;;NaN;;926.0;;0 / 0;266;2017-10-03 21:16:55:140
-0.538619;2.141673;9.255912;-1.320007;4.345773;8.691504;0.465503;0.06559;0.304091;30.8161;42.498;3.8162;0.0;32.0236;10.5896;-45.4437;321.8777;-26.3048;8.6357;5.0;61.01558;12.847223;77.66102;;NaN;;926.0;;0 / 0;277;2017-10-03 21:16:55:151
-0.538619;2.141673;9.255912;-1.320007;4.345773;8.691504;0.465503;0.06559;0.304091;30.8161;42.498;3.8162;0.0;32.0236;10.5896;-45.4437;321.8777;-26.3048;8.6357;5.0;61.01558;12.847223;77.66102;;NaN;;926.0;;0 / 0;287;2017-10-03 21:16:55:161
-0.538619;2.141673;9.255912;-1.320007;4.345773;8.691504;0.465503;0.06559;0.304091;30.8161;42.498;3.8162;0.0;32.0236;10.5896;-45.4437;321.8777;-26.3048;8.6357;5.0;61.01558;12.847223;77.66102;;NaN;;926.0;;0 / 0;296;2017-10-03 21:16:55:170
-0.538619;2.141673;9.255912;-1.320007;4.345773;8.691504;0.465503;0.06559;0.304091;30.8161;42.498;3.8162;0.0;32.0236;10.5896;-45.4437;321.8777;-26.3048;8.6357;5.0;61.01558;12.847223;77.66102;;NaN;;926.0;;0 / 0;306;2017-10-03 21:16:55:180
-0.905914;2.812862;9.324104;-1.67132;4.608152;8.493646;-0.073654;-0.357737;0.149218;29.7136;46.3185;9.9762;0.0;32.0236;10.5896;-45.4437;321.8777;-26.3048;8.6357;5.0;61.01558;12.847223;77.66102;;NaN;;926.0;;0 / 0;316;2017-10-03 21:16:55:190
-0.905914;2.812862;9.324104;-1.67132;4.608152;8.493646;-0.073654;-0.357737;0.149218;29.7136;46.3185;9.9762;0.0;32.0236;10.5896;-45.4437;321.8777;-26.3048;8.6357;5.0;61.01558;12.847223;77.66102;;NaN;;926.0;;0 / 0;327;2017-10-03 21:16:55:201
-0.905914;2.812862;9.324104;-1.67132;4.608152;8.493646;-0.073654;-0.357737;0.149218;29.7136;46.3185;9.9762;0.0;32.2296;10.3195;-45.1767;325.0375;-28.0278;11.132;5.0;61.01558;12.847223;77.66102;;NaN;;926.0;;0 / 0;339;2017-10-03 21:16:55:213
-0.533828;1.462108;6.159599;-1.67132;4.608152;8.493646;-0.073654;-0.357737;0.149218;29.7136;46.3185;9.9762;0.0;32.2296;10.3195;-45.1767;325.0375;-28.0278;11.132;5.0;61.01558;12.847223;77.66102;;NaN;;926.0;;0 / 0;346;2017-10-03 21:16:55:220
-0.533828;1.462108;6.159599;-1.67132;4.608152;8.493646;-0.073654;-0.357737;0.149218;29.7136;46.3185;9.9762;0.0;32.2296;10.3195;-45.1767;325.0375;-28.0278;11.132;5.0;61.01558;12.847223;77.66102;;NaN;;926.0;;0 / 0;357;2017-10-03 21:16:55:231
-0.533828;1.462108;6.159599;-1.856477;4.967802;8.248928;-0.411741;-0.23636;-0.665956;43.1948;21.3574;0.3156;0.0;32.2296;10.3195;-45.1767;325.0375;-28.0278;11.132;5.0;61.01558;12.847223;77.66102;;NaN;;926.0;;0 / 0;366;2017-10-03 21:16:55:240
-0.533828;1.462108;6.159599;-1.856477;4.967802;8.248928;-0.411741;-0.23636;-0.665956;43.1948;21.3574;0.3156;0.0;32.2296;10.3195;-45.1767;325.0375;-28.0278;11.132;5.0;61.01558;12.847223;77.66102;;NaN;;926.0;;0 / 0;376;2017-10-03 21:16:55:250
-0.817382;3.339275;9.747626;-1.856477;4.967802;8.248928;-0.411741;-0.23636;-0.665956;43.1948;21.3574;0.3156;0.0;32.2296;10.3195;-45.1767;325.0375;-28.0278;11.132;5.0;61.01558;12.847223;77.66102;;NaN;;926.0;;0 / 0;387;2017-10-03 21:16:55:261
-0.817382;3.339275;9.747626;-1.856477;4.967802;8.248928;-0.411741;-0.23636;-0.665956;43.1948;21.3574;0.3156;0.0;32.2296;10.3195;-45.1767;325.0375;-28.0278;11.132;5.0;61.01558;12.847223;77.66102;;NaN;;926.0;;0 / 0;396;2017-10-03 21:16:55:270
-0.817382;3.339275;9.747626;-1.856477;4.967802;8.248928;-0.411741;-0.23636;-0.665956;43.1948;21.3574;0.3156;0.0;32.515;9.9945;-44.8364;327.1298;-30.4359;12.6835;5.0;61.01558;12.847223;77.66102;;NaN;;926.0;;0 / 0;407;2017-10-03 21:16:55:281
-0.817382;3.339275;9.747626;-1.856477;4.967802;8.248928;-0.411741;-0.23636;-0.665956;43.1948;21.3574;0.3156;0.0;32.515;9.9945;-44.8364;327.1298;-30.4359;12.6835;5.0;61.01558;12.847223;77.66102;;NaN;;926.0;;0 / 0;416;2017-10-03 21:16:55:290
-1.019576;4.596706;10.104164;-2.079483;5.011614;8.168835;-0.112769;0.978479;1.054453;6.0482;24.7705;-5.0157;0.0;32.515;9.9945;-44.8364;327.1298;-30.4359;12.6835;5.0;61.01558;12.847223;77.66102;;NaN;;926.0;;0 / 0;426;2017-10-03 21:16:55:300
-1.019576;4.596706;10.104164;-2.079483;5.011614;8.168835;-0.112769;0.978479;1.054453;6.0482;24.7705;-5.0157;0.0;32.515;9.9945;-44.8364;327.1298;-30.4359;12.6835;5.0;61.01558;12.847223;77.66102;;NaN;;926.0;;0 / 0;437;2017-10-03 21:16:55:311
-1.019576;4.596706;10.104164;-2.079483;5.011614;8.168835;-0.112769;0.978479;1.054453;6.0482;24.7705;-5.0157;0.0;32.515;9.9945;-44.8364;327.1298;-30.4359;12.6835;5.0;61.01558;12.847223;77.66102;;NaN;;926.0;;0 / 0;446;2017-10-03 21:16:55:320
-1.019576;4.596706;10.104164;-2.079483;5.011614;8.168835;-0.112769;0.978479;1.054453;6.0482;24.7705;-5.0157;0.0;32.515;9.9945;-44.8364;327.1298;-30.4359;12.6835;5.0;61.01558;12.847223;77.66102;;NaN;;926.0;;0 / 0;456;2017-10-03 21:16:55:330
0.895875;2.416835;9.821816;-2.079483;5.011614;8.168835;-0.112769;0.978479;1.054453;6.0482;24.7705;-5.0157;0.0;32.515;9.9945;-44.8364;327.1298;-30.4359;12.6835;5.0;61.01558;12.847223;77.66102;;NaN;;926.0;;0 / 0;466;2017-10-03 21:16:55:340
0.895875;2.416835;9.821816;-1.976195;5.329201;7.991537;-0.214321;0.638969;1.217776;34.5142;0.9057;21.4029;0.0;32.7988;9.6344;-44.5679;329.2127;-30.7333;14.282;5.0;61.01558;12.847223;77.66102;;NaN;;926.0;;0 / 0;477;2017-10-03 21:16:55:351
0.895875;2.416835;9.821816;-1.976195;5.329201;7.991537;-0.214321;0.638969;1.217776;34.5142;0.9057;21.4029;0.0;32.7988;9.6344;-44.5679;329.2127;-30.7333;14.282;5.0;61.01558;12.847223;77.66102;;NaN;;926.0;;0 / 0;488;2017-10-03 21:16:55:362
0.895875;2.416835;9.821816;-1.976195;5.329201;7.991537;-0.214321;0.638969;1.217776;34.5142;0.9057;21.4029;0.0;32.7988;9.6344;-44.5679;329.2127;-30.7333;14.282;5.0;61.01558;12.847223;77.66102;;NaN;;926.0;;0 / 0;497;2017-10-03 21:16:55:371
-0.588867;3.442165;8.119315;-1.976195;5.329201;7.991537;-0.214321;0.638969;1.217776;34.5142;0.9057;21.4029;0.0;32.7988;9.6344;-44.5679;329.2127;-30.7333;14.282;5.0;61.01558;12.847223;77.66102;;NaN;;926.0;;0 / 0;506;2017-10-03 21:16:55:380
-0.588867;3.442165;8.119315;-1.976195;5.329201;7.991537;-0.214321;0.638969;1.217776;34.5142;0.9057;21.4029;0.0;32.7988;9.6344;-44.5679;329.2127;-30.7333;14.282;5.0;54.69649;12.847223;77.66102;;NaN;;926.0;;0 / 0;517;2017-10-03 21:16:55:391
-0.588867;3.442165;8.119315;-1.976195;5.329201;7.991537;-0.214321;0.638969;1.217776;34.5142;0.9057;21.4029;0.0;32.7988;9.6344;-44.5679;329.2127;-30.7333;14.282;5.0;54.69649;12.847223;77.66102;;NaN;;926.0;;0 / 0;526;2017-10-03 21:16:55:400
-0.849685;4.445949;5.527885;-1.811792;5.730907;7.748839;0.569268;-0.585582;1.047796;50.084;-10.6853;12.968;0.0;33.1055;9.2484;-44.2032;328.9485;-35.7599;13.1602;5.0;54.69649;12.847223;77.66102;;NaN;;926.0;;0 / 0;537;2017-10-03 21:16:55:411
-0.849685;4.445949;5.527885;-1.811792;5.730907;7.748839;0.569268;-0.585582;1.047796;50.084;-10.6853;12.968;0.0;33.1055;9.2484;-44.2032;328.9485;-35.7599;13.1602;5.0;54.69649;12.847223;77.66102;;NaN;;926.0;;0 / 0;546;2017-10-03 21:16:55:420
-0.849685;4.445949;5.527885;-1.811792;5.730907;7.748839;0.569268;-0.585582;1.047796;50.084;-10.6853;12.968;0.0;33.1055;9.2484;-44.2032;328.9485;-35.7599;13.1602;5.0;54.69649;12.847223;77.66102;;NaN;;926.0;;0 / 0;556;2017-10-03 21:16:55:430
-0.849685;4.445949;5.527885;-1.811792;5.730907;7.748839;0.569268;-0.585582;1.047796;50.084;-10.6853;12.968;0.0;33.1055;9.2484;-44.2032;328.9485;-35.7599;13.1602;5.0;54.69649;12.847223;77.66102;;NaN;;926.0;;0 / 0;566;2017-10-03 21:16:55:440
0.782227;4.052333;7.840553;-1.811792;5.730907;7.748839;0.569268;-0.585582;1.047796;50.084;-10.6853;12.968;0.0;33.1055;9.2484;-44.2032;328.9485;-35.7599;13.1602;5.0;54.69649;12.847223;77.66102;;NaN;;926.0;;0 / 0;576;2017-10-03 21:16:55:450
0.782227;4.052333;7.840553;-1.811792;5.730907;7.748839;0.569268;-0.585582;1.047796;50.084;-10.6853;12.968;0.0;33.1055;9.2484;-44.2032;328.9485;-35.7599;13.1602;5.0;54.69649;12.847223;77.66102;;NaN;;926.0;;0 / 0;587;2017-10-03 21:16:55:461
0.782227;4.052333;7.840553;-1.213205;5.725838;7.868501;-1.191867;0.828064;-1.92198;-10.7753;-52.3877;37.7665;0.0;33.1055;9.2484;-44.2032;328.9485;-35.7599;13.1602;5.0;54.69649;12.847223;77.66102;;NaN;;926.0;;0 / 0;596;2017-10-03 21:16:55:470
0.782227;4.052333;7.840553;-1.213205;5.725838;7.868501;-1.191867;0.828064;-1.92198;-10.7753;-52.3877;37.7665;0.0;33.3344;8.8242;-43.9102;323.9782;-35.7234;8.7651;5.0;54.69649;12.847223;77.66102;;NaN;;926.0;;0 / 0;607;2017-10-03 21:16:55:481
0.146927;3.9985;7.592902;-1.213205;5.725838;7.868501;-1.191867;0.828064;-1.92198;-10.7753;-52.3877;37.7665;0.0;33.3344;8.8242;-43.9102;323.9782;-35.7234;8.7651;5.0;54.69649;12.847223;77.66102;;NaN;;926.0;;0 / 0;616;2017-10-03 21:16:55:490
0.146927;3.9985;7.592902;-1.213205;5.725838;7.868501;-1.191867;0.828064;-1.92198;-10.7753;-52.3877;37.7665;0.0;33.3344;8.8242;-43.9102;323.9782;-35.7234;8.7651;5.0;54.69649;12.847223;77.66102;;NaN;;926.0;;0 / 0;626;2017-10-03 21:16:55:500
0.146927;3.9985;7.592902;-1.213205;5.725838;7.868501;-1.191867;0.828064;-1.92198;-10.7753;-52.3877;37.7665;0.0;33.3344;8.8242;-43.9102;323.9782;-35.7234;8.7651;5.0;54.69649;12.847223;77.66102;;NaN;;926.0;;0 / 0;637;2017-10-03 21:16:55:511
0.146927;3.9985;7.592902;-1.213205;5.725838;7.868501;-1.191867;0.828064;-1.92198;-10.7753;-52.3877;37.7665;0.0;33.3344;8.8242;-43.9102;323.9782;-35.7234;8.7651;5.0;54.69649;12.847223;77.66102;;NaN;;926.0;;0 / 0;647;2017-10-03 21:16:55:521
2.311234;3.430202;6.931281;-0.243892;5.534088;8.092266;-0.688739;0.507071;-1.021306;-29.7634;-94.0437;41.9953;0.0;33.3344;8.8242;-43.9102;323.9782;-35.7234;8.7651;5.0;54.69649;12.847223;77.66102;;NaN;;926.0;;0 / 0;657;2017-10-03 21:16:55:531
2.311234;3.430202;6.931281;-0.243892;5.534088;8.092266;-0.688739;0.507071;-1.021306;-29.7634;-94.0437;41.9953;0.0;33.3344;8.8242;-43.9102;323.9782;-35.7234;8.7651;5.0;54.69649;12.847223;77.66102;;NaN;;926.0;;0 / 0;667;2017-10-03 21:16:55:541
2.311234;3.430202;6.931281;-0.243892;5.534088;8.092266;-0.688739;0.507071;-1.021306;-29.7634;-94.0437;41.9953;0.0;33.5358;8.4122;-43.8614;314.4172;-34.3551;1.7263;5.0;54.69649;12.847223;77.66102;;NaN;;926.0;;0 / 0;676;2017-10-03 21:16:55:550
-0.054061;3.248347;10.321906;-0.243892;5.534088;8.092266;-0.688739;0.507071;-1.021306;-29.7634;-94.0437;41.9953;0.0;33.5358;8.4122;-43.8614;314.4172;-34.3551;1.7263;5.0;54.69649;12.847223;77.66102;;NaN;;926.0;;0 / 0;686;2017-10-03 21:16:55:560
-0.054061;3.248347;10.321906;-0.243892;5.534088;8.092266;-0.688739;0.507071;-1.021306;-29.7634;-94.0437;41.9953;0.0;33.5358;8.4122;-43.8614;314.4172;-34.3551;1.7263;5.0;54.69649;12.847223;77.66102;;NaN;;926.0;;0 / 0;696;2017-10-03 21:16:55:570
-0.054061;3.248347;10.321906;-0.068707;5.242053;8.287736;-0.33249;0.24895;-0.548796;-36.9149;-22.667;-0.5761;0.0;33.5358;8.4122;-43.8614;314.4172;-34.3551;1.7263;5.0;54.69649;12.847223;77.66102;;NaN;;926.0;;0 / 0;707;2017-10-03 21:16:55:581
-0.054061;3.248347;10.321906;-0.068707;5.242053;8.287736;-0.33249;0.24895;-0.548796;-36.9149;-22.667;-0.5761;0.0;33.5358;8.4122;-43.8614;314.4172;-34.3551;1.7263;5.0;54.69649;12.847223;77.66102;;NaN;;926.0;;0 / 0;716;2017-10-03 21:16:55:590
2.327988;1.92512;7.813041;-0.068707;5.242053;8.287736;-0.33249;0.24895;-0.548796;-36.9149;-22.667;-0.5761;0.0;33.5358;8.4122;-43.8614;314.4172;-34.3551;1.7263;5.0;54.69649;12.847223;77.66102;;NaN;;926.0;;0 / 0;727;2017-10-03 21:16:55:601
2.327988;1.92512;7.813041;-0.068707;5.242053;8.287736;-0.33249;0.24895;-0.548796;-36.9149;-22.667;-0.5761;0.0;33.5358;8.4122;-43.8614;314.4172;-34.3551;1.7263;5.0;54.69649;12.847223;77.66102;;NaN;;926.0;;0 / 0;737;2017-10-03 21:16:55:611
2.327988;1.92512;7.813041;-0.068707;5.242053;8.287736;-0.33249;0.24895;-0.548796;-36.9149;-22.667;-0.5761;0.0;33.7128;8.0399;-43.9102;312.1376;-32.3128;0.475;5.0;54.69649;12.847223;77.66102;;NaN;;926.0;;0 / 0;746;2017-10-03 21:16:55:620
2.327988;1.92512;7.813041;-0.068707;5.242053;8.287736;-0.33249;0.24895;-0.548796;-36.9149;-22.667;-0.5761;0.0;33.7128;8.0399;-43.9102;312.1376;-32.3128;0.475;5.0;54.69649;12.847223;77.66102;;NaN;;926.0;;0 / 0;756;2017-10-03 21:16:55:630
-0.523055;2.176356;5.480033;0.299011;5.028909;8.413742;-0.78542;-0.502203;-1.668939;-26.3678;-41.281;7.4321;0.0;33.7128;8.0399;-43.9102;312.1376;-32.3128;0.475;5.0;54.69649;12.847223;77.66102;;NaN;;926.0;;0 / 0;766;2017-10-03 21:16:55:640
-0.523055;2.176356;5.480033;0.299011;5.028909;8.413742;-0.78542;-0.502203;-1.668939;-26.3678;-41.281;7.4321;0.0;33.7128;8.0399;-43.9102;312.1376;-32.3128;0.475;5.0;54.69649;12.847223;77.66102;;NaN;;926.0;;0 / 0;776;2017-10-03 21:16:55:650
-0.523055;2.176356;5.480033;0.299011;5.028909;8.413742;-0.78542;-0.502203;-1.668939;-26.3678;-41.281;7.4321;0.0;33.7128;8.0399;-43.9102;312.1376;-32.3128;0.475;5.0;54.69649;12.847223;77.66102;;NaN;;926.0;;0 / 0;787;2017-10-03 21:16:55:661
-0.523055;2.176356;5.480033;0.299011;5.028909;8.413742;-0.78542;-0.502203;-1.668939;-26.3678;-41.281;7.4321;0.0;33.7128;8.0399;-43.9102;312.1376;-32.3128;0.475;5.0;54.69649;12.847223;77.66102;;NaN;;926.0;;0 / 0;797;2017-10-03 21:16:55:671
4.086716;2.333095;10.059898;0.299011;5.028909;8.413742;-0.78542;-0.502203;-1.668939;-26.3678;-41.281;7.4321;0.0;33.9813;7.5027;-44.0613;309.0168;-30.8509;-2.0353;5.0;54.69649;12.847223;77.66102;;NaN;;926.0;;0 / 0;806;2017-10-03 21:16:55:680
4.086716;2.333095;10.059898;0.299011;5.028909;8.413742;-0.78542;-0.502203;-1.668939;-26.3678;-41.281;7.4321;0.0;33.9813;7.5027;-44.0613;309.0168;-30.8509;-2.0353;5.0;59.55966;12.847223;77.66102;;NaN;;926.0;;0 / 0;816;2017-10-03 21:16:55:690
4.086716;2.333095;10.059898;0.600011;4.541664;8.670852;-1.092417;0.011397;-1.906531;-58.4865;-31.0084;11.6443;0.0;33.9813;7.5027;-44.0613;309.0168;-30.8509;-2.0353;5.0;59.55966;12.847223;77.66102;;NaN;;926.0;;0 / 0;827;2017-10-03 21:16:55:701
4.086716;2.333095;10.059898;0.600011;4.541664;8.670852;-1.092417;0.011397;-1.906531;-58.4865;-31.0084;11.6443;0.0;33.9813;7.5027;-44.0613;309.0168;-30.8509;-2.0353;5.0;59.55966;12.847223;77.66102;;NaN;;926.0;;0 / 0;837;2017-10-03 21:16:55:711
4.766267;1.80189;8.432776;0.600011;4.541664;8.670852;-1.092417;0.011397;-1.906531;-58.4865;-31.0084;11.6443;0.0;33.9813;7.5027;-44.0613;309.0168;-30.8509;-2.0353;5.0;59.55966;12.847223;77.66102;;NaN;;926.0;;0 / 0;846;2017-10-03 21:16:55:720
4.766267;1.80189;8.432776;0.600011;4.541664;8.670852;-1.092417;0.011397;-1.906531;-58.4865;-31.0084;11.6443;0.0;33.9813;7.5027;-44.0613;309.0168;-30.8509;-2.0353;5.0;59.55966;12.847223;77.66102;;NaN;;926.0;;0 / 0;857;2017-10-03 21:16:55:731
4.766267;1.80189;8.432776;0.600011;4.541664;8.670852;-1.092417;0.011397;-1.906531;-58.4865;-31.0084;11.6443;0.0;33.9813;7.5027;-44.0613;309.0168;-30.8509;-2.0353;5.0;59.55966;12.847223;77.66102;;NaN;;926.0;;0 / 0;867;2017-10-03 21:16:55:741
4.766267;1.80189;8.432776;0.600011;4.541664;8.670852;-1.092417;0.011397;-1.906531;-58.4865;-31.0084;11.6443;0.0;33.9813;7.5027;-44.0613;309.0168;-30.8509;-2.0353;5.0;59.55966;12.847223;77.66102;;NaN;;926.0;;0 / 0;876;2017-10-03 21:16:55:750
4.766267;1.80189;8.432776;0.600011;4.541664;8.670852;-1.092417;0.011397;-1.906531;-58.4865;-31.0084;11.6443;0.0;33.9813;7.5027;-44.0613;309.0168;-30.8509;-2.0353;5.0;59.55966;12.847223;77.66102;;NaN;;926.0;;0 / 0;886;2017-10-03 21:16:55:760
4.766267;1.80189;8.432776;0.600011;4.541664;8.670852;-1.092417;0.011397;-1.906531;-58.4865;-31.0084;11.6443;0.0;33.9813;7.5027;-44.0613;309.0168;-30.8509;-2.0353;5.0;59.55966;12.847223;77.66102;;NaN;;926.0;;0 / 0;896;2017-10-03 21:16:55:770
4.766267;1.80189;8.432776;0.600011;4.541664;8.670852;-1.092417;0.011397;-1.906531;-58.4865;-31.0084;11.6443;0.0;33.9813;7.5027;-44.0613;309.0168;-30.8509;-2.0353;5.0;59.55966;12.847223;77.66102;;NaN;;926.0;;0 / 0;906;2017-10-03 21:16:55:780
4.766267;1.80189;8.432776;0.600011;4.541664;8.670852;-1.092417;0.011397;-1.906531;-58.4865;-31.0084;11.6443;0.0;33.9813;7.5027;-44.0613;309.0168;-30.8509;-2.0353;5.0;59.55966;12.847223;77.66102;;NaN;;926.0;;0 / 0;916;2017-10-03 21:16:55:790
2.262177;1.306575;8.018821;1.222733;4.553993;8.59863;0.572622;0.235145;0.0036;-0.0184;-76.5436;-10.4816;0.0;34.1095;7.0114;-44.0414;304.5488;-27.5887;-3.9585;5.0;59.55966;12.847223;77.66102;;NaN;;926.0;;0 / 0;926;2017-10-03 21:16:55:800
2.262177;1.306575;8.018821;1.222733;4.553993;8.59863;0.572622;0.235145;0.0036;-0.0184;-76.5436;-10.4816;0.0;34.1095;7.0114;-44.0414;304.5488;-27.5887;-3.9585;5.0;59.55966;12.847223;77.66102;;NaN;;926.0;;0 / 0;939;2017-10-03 21:16:55:813
2.262177;1.306575;8.018821;1.222733;4.553993;8.59863;0.572622;0.235145;0.0036;-0.0184;-76.5436;-10.4816;0.0;34.1095;7.0114;-44.0414;304.5488;-27.5887;-3.9585;5.0;59.55966;12.847223;77.66102;;NaN;;926.0;;0 / 0;947;2017-10-03 21:16:55:821
4.872758;1.188121;7.90995;1.222733;4.553993;8.59863;0.572622;0.235145;0.0036;-0.0184;-76.5436;-10.4816;0.0;34.1095;7.0114;-44.0414;304.5488;-27.5887;-3.9585;5.0;59.55966;12.847223;77.66102;;NaN;;926.0;;0 / 0;957;2017-10-03 21:16:55:831
4.872758;1.188121;7.90995;1.222733;4.553993;8.59863;0.572622;0.235145;0.0036;-0.0184;-76.5436;-10.4816;0.0;34.1095;7.0114;-44.0414;304.5488;-27.5887;-3.9585;5.0;59.55966;12.847223;77.66102;;NaN;;926.0;;0 / 0;966;2017-10-03 21:16:55:840
4.872758;1.188121;7.90995;1.222733;4.553993;8.59863;0.572622;0.235145;0.0036;-0.0184;-76.5436;-10.4816;0.0;34.1095;7.0114;-44.0414;304.5488;-27.5887;-3.9585;5.0;59.55966;12.847223;77.66102;;NaN;;926.0;;0 / 0;976;2017-10-03 21:16:55:850
4.872758;1.188121;7.90995;1.222733;4.553993;8.59863;0.572622;0.235145;0.0036;-0.0184;-76.5436;-10.4816;0.0;34.1095;7.0114;-44.0414;304.5488;-27.5887;-3.9585;5.0;59.55966;12.847223;77.66102;;NaN;;926.0;;0 / 0;986;2017-10-03 21:16:55:860
3.719407;0.254924;5.641547;2.542387;4.306221;8.435824;1.183038;-0.729765;-0.316185;-3.2505;-83.1058;-2.7697;0.0;34.1095;7.0114;-44.0414;304.5488;-27.5887;-3.9585;5.0;59.55966;12.847223;77.66102;;NaN;;926.0;;0 / 0;996;2017-10-03 21:16:55:870
3.719407;0.254924;5.641547;2.542387;4.306221;8.435824;1.183038;-0.729765;-0.316185;-3.2505;-83.1058;-2.7697;0.0;34.3323;5.7861;-44.2459;293.4;-26.0473;-16.7717;5.0;59.55966;12.847223;77.66102;;NaN;;926.0;;0 / 0;1006;2017-10-03 21:16:55:880
3.719407;0.254924;5.641547;2.542387;4.306221;8.435824;1.183038;-0.729765;-0.316185;-3.2505;-83.1058;-2.7697;0.0;34.3323;5.7861;-44.2459;293.4;-26.0473;-16.7717;5.0;59.55966;12.847223;77.66102;;NaN;;926.0;;0 / 0;1017;2017-10-03 21:16:55:891
6.77266;-1.089833;5.355613;2.542387;4.306221;8.435824;1.183038;-0.729765;-0.316185;-3.2505;-83.1058;-2.7697;0.0;34.3323;5.7861;-44.2459;293.4;-26.0473;-16.7717;5.0;59.55966;12.847223;77.66102;;NaN;;926.0;;0 / 0;1029;2017-10-03 21:16:55:903
6.77266;-1.089833;5.355613;2.542387;4.306221;8.435824;1.183038;-0.729765;-0.316185;-3.2505;-83.1058;-2.7697;0.0;34.3323;5.7861;-44.2459;293.4;-26.0473;-16.7717;5.0;59.55966;12.847223;77.66102;;NaN;;926.0;;0 / 0;1038;2017-10-03 21:16:55:912
6.77266;-1.089833;5.355613;3.873663;4.005459;8.069785;-0.594667;-1.914229;-2.782005;-27.4589;-150.3131;20.2541;0.0;34.3323;5.7861;-44.2459;293.4;-26.0473;-16.7717;5.0;59.55966;12.847223;77.66102;;NaN;;926.0;;0 / 0;1046;2017-10-03 21:16:55:920
6.77266;-1.089833;5.355613;3.873663;4.005459;8.069785;-0.594667;-1.914229;-2.782005;-27.4589;-150.3131;20.2541;0.0;34.3323;5.7861;-44.2459;293.4;-26.0473;-16.7717;5.0;59.55966;12.847223;77.66102;;NaN;;926.0;;0 / 0;1056;2017-10-03 21:16:55:930
6.837266;-2.070897;4.330283;3.873663;4.005459;8.069785;-0.594667;-1.914229;-2.782005;-27.4589;-150.3131;20.2541;0.0;34.3323;5.7861;-44.2459;293.4;-26.0473;-16.7717;5.0;59.55966;12.847223;77.66102;;NaN;;926.0;;0 / 0;1066;2017-10-03 21:16:55:940
6.837266;-2.070897;4.330283;3.873663;4.005459;8.069785;-0.594667;-1.914229;-2.782005;-27.4589;-150.3131;20.2541;0.0;34.1568;5.2338;-44.6075;286.7901;-24.1071;-25.642;5.0;59.55966;12.847223;77.66102;;NaN;;926.0;;0 / 0;1077;2017-10-03 21:16:55:951
6.837266;-2.070897;4.330283;3.873663;4.005459;8.069785;-0.594667;-1.914229;-2.782005;-27.4589;-150.3131;20.2541;0.0;34.1568;5.2338;-44.6075;286.7901;-24.1071;-25.642;5.0;59.55966;12.847223;77.66102;;NaN;;926.0;;0 / 0;1086;2017-10-03 21:16:55:960
6.837266;-2.070897;4.330283;3.873663;4.005459;8.069785;-0.594667;-1.914229;-2.782005;-27.4589;-150.3131;20.2541;0.0;34.1568;5.2338;-44.6075;286.7901;-24.1071;-25.642;5.0;59.55966;12.847223;77.66102;;NaN;;926.0;;0 / 0;1097;2017-10-03 21:16:55:971
6.052415;-4.590535;6.3917;5.225071;3.262718;7.630446;0.027592;-3.299734;-3.189878;-73.0876;-154.5594;30.1997;0.0;34.1568;5.2338;-44.6075;286.7901;-24.1071;-25.642;5.0;59.55966;12.847223;77.66102;;NaN;;926.0;;0 / 0;1106;2017-10-03 21:16:55:980
6.052415;-4.590535;6.3917;5.225071;3.262718;7.630446;0.027592;-3.299734;-3.189878;-73.0876;-154.5594;30.1997;0.0;34.1568;5.2338;-44.6075;286.7901;-24.1071;-25.642;5.0;59.55966;12.847223;77.66102;;NaN;;926.0;;0 / 0;1116;2017-10-03 21:16:55:990
6.052415;-4.590535;6.3917;5.225071;3.262718;7.630446;0.027592;-3.299734;-3.189878;-73.0876;-154.5594;30.1997;0.0;34.1568;5.2338;-44.6075;286.7901;-24.1071;-25.642;5.0;59.55966;12.847223;77.66102;;NaN;;926.0;;0 / 0;1126;2017-10-03 21:16:56:000
6.052415;-4.590535;6.3917;5.225071;3.262718;7.630446;0.027592;-3.299734;-3.189878;-73.0876;-154.5594;30.1997;0.0;34.1568;5.2338;-44.6075;286.7901;-24.1071;-25.642;5.0;60.24744;12.847223;77.66102;;NaN;;926.0;;0 / 0;1137;2017-10-03 21:16:56:011
5.883729;-5.512974;5.769569;5.225071;3.262718;7.630446;0.027592;-3.299734;-3.189878;-73.0876;-154.5594;30.1997;0.0;33.7616;4.6219;-45.3293;281.2908;-19.433;-34.402;5.0;60.24744;12.847223;77.66102;;NaN;;926.0;;0 / 0;1146;2017-10-03 21:16:56:020
5.883729;-5.512974;5.769569;5.225071;3.262718;7.630446;0.027592;-3.299734;-3.189878;-73.0876;-154.5594;30.1997;0.0;33.7616;4.6219;-45.3293;281.2908;-19.433;-34.402;5.0;60.24744;12.847223;77.66102;;NaN;;926.0;;0 / 0;1157;2017-10-03 21:16:56:031
5.883729;-5.512974;5.769569;7.48362;2.275283;5.915142;-2.821132;-5.130648;-0.198685;-66.7702;-300.7906;69.8266;0.0;33.7616;4.6219;-45.3293;281.2908;-19.433;-34.402;5.0;60.24744;12.847223;77.66102;;NaN;;926.0;;0 / 0;1166;2017-10-03 21:16:56:040
6.056;-6.281071;4.885413;7.48362;2.275283;5.915142;-2.821132;-5.130648;-0.198685;-66.7702;-300.7906;69.8266;0.0;33.7616;4.6219;-45.3293;281.2908;-19.433;-34.402;5.0;60.24744;12.847223;77.66102;;NaN;;926.0;;0 / 0;1176;2017-10-03 21:16:56:050
6.056;-6.281071;4.885413;7.48362;2.275283;5.915142;-2.821132;-5.130648;-0.198685;-66.7702;-300.7906;69.8266;0.0;33.7616;4.6219;-45.3293;281.2908;-19.433;-34.402;5.0;60.24744;12.847223;77.66102;;NaN;;926.0;;0 / 0;1186;2017-10-03 21:16:56:060
6.056;-6.281071;4.885413;7.48362;2.275283;5.915142;-2.821132;-5.130648;-0.198685;-66.7702;-300.7906;69.8266;0.0;33.7616;4.6219;-45.3293;281.2908;-19.433;-34.402;5.0;60.24744;12.847223;77.66102;;NaN;;926.0;;0 / 0;1196;2017-10-03 21:16:56:070
6.056;-6.281071;4.885413;7.48362;2.275283;5.915142;-2.821132;-5.130648;-0.198685;-66.7702;-300.7906;69.8266;0.0;33.7616;4.6219;-45.3293;281.2908;-19.433;-34.402;5.0;60.24744;12.847223;77.66102;;NaN;;926.0;;0 / 0;1206;2017-10-03 21:16:56:080
7.340943;-6.600514;5.292197;9.186622;0.69819;3.359897;-4.490987;-3.543618;2.382499;-60.7675;-318.8214;143.8287;0.0;32.753;4.0085;-46.4264;274.5519;-13.4157;-51.6767;5.0;60.24744;12.847223;77.66102;;NaN;;926.0;;0 / 0;1216;2017-10-03 21:16:56:090
7.340943;-6.600514;5.292197;9.186622;0.69819;3.359897;-4.490987;-3.543618;2.382499;-60.7675;-318.8214;143.8287;0.0;32.753;4.0085;-46.4264;274.5519;-13.4157;-51.6767;5.0;60.24744;12.847223;77.66102;;NaN;;926.0;;0 / 0;1226;2017-10-03 21:16:56:100
7.340943;-6.600514;5.292197;9.186622;0.69819;3.359897;-4.490987;-3.543618;2.382499;-60.7675;-318.8214;143.8287;0.0;32.753;4.0085;-46.4264;274.5519;-13.4157;-51.6767;5.0;60.24744;12.847223;77.66102;;NaN;;926.0;;0 / 0;1236;2017-10-03 21:16:56:110
7.340943;-6.600514;5.292197;9.186622;0.69819;3.359897;-4.490987;-3.543618;2.382499;-60.7675;-318.8214;143.8287;0.0;32.753;4.0085;-46.4264;274.5519;-13.4157;-51.6767;5.0;60.24744;12.847223;77.66102;;NaN;;926.0;;0 / 0;1246;2017-10-03 21:16:56:120
11.138352;-5.800114;6.797279;9.186622;0.69819;3.359897;-4.490987;-3.543618;2.382499;-60.7675;-318.8214;143.8287;0.0;32.753;4.0085;-46.4264;274.5519;-13.4157;-51.6767;5.0;60.24744;12.847223;77.66102;;NaN;;926.0;;0 / 0;1256;2017-10-03 21:16:56:130
11.138352;-5.800114;6.797279;9.186622;0.69819;3.359897;-4.490987;-3.543618;2.382499;-60.7675;-318.8214;143.8287;0.0;32.753;4.0085;-46.4264;274.5519;-13.4157;-51.6767;5.0;60.24744;12.847223;77.66102;;NaN;;926.0;;0 / 0;1266;2017-10-03 21:16:56:140
11.138352;-5.800114;6.797279;9.656992;-1.496554;0.820493;-4.318413;-2.587989;4.089462;-36.7165;-271.0114;213.9167;0.0;31.2958;3.5339;-47.5525;279.062;8.778;-85.1436;5.0;60.24744;12.847223;77.66102;;NaN;;926.0;;0 / 0;1277;2017-10-03 21:16:56:151
11.138352;-5.800114;6.797279;9.656992;-1.496554;0.820493;-4.318413;-2.587989;4.089462;-36.7165;-271.0114;213.9167;0.0;31.2958;3.5339;-47.5525;279.062;8.778;-85.1436;5.0;60.24744;12.847223;77.66102;;NaN;;926.0;;0 / 0;1287;2017-10-03 21:16:56:161
12.790606;-5.429219;6.504157;9.656992;-1.496554;0.820493;-4.318413;-2.587989;4.089462;-36.7165;-271.0114;213.9167;0.0;31.2958;3.5339;-47.5525;279.062;8.778;-85.1436;5.0;60.24744;12.847223;77.66102;;NaN;;926.0;;0 / 0;1296;2017-10-03 21:16:56:170
12.790606;-5.429219;6.504157;9.656992;-1.496554;0.820493;-4.318413;-2.587989;4.089462;-36.7165;-271.0114;213.9167;0.0;31.2958;3.5339;-47.5525;279.062;8.778;-85.1436;5.0;60.24744;12.847223;77.66102;;NaN;;926.0;;0 / 0;1309;2017-10-03 21:16:56:183
12.790606;-5.429219;6.504157;9.656992;-1.496554;0.820493;-4.318413;-2.587989;4.089462;-36.7165;-271.0114;213.9167;0.0;31.2958;3.5339;-47.5525;279.062;8.778;-85.1436;5.0;60.24744;12.847223;77.66102;;NaN;;926.0;;0 / 0;1316;2017-10-03 21:16:56:190
12.790606;-5.429219;6.504157;9.656992;-1.496554;0.820493;-4.318413;-2.587989;4.089462;-36.7165;-271.0114;213.9167;12.0;31.2958;3.5339;-47.5525;279.062;8.778;-85.1436;5.0;60.24744;12.847223;77.66102;;NaN;;926.0;;0 / 0;1326;2017-10-03 21:16:56:200
14.226304;-4.951863;6.825996;9.118642;-3.60151;-0.223372;0.740332;-0.031624;6.423375;1.5501;-122.4643;222.6961;12.0;31.2958;3.5339;-47.5525;279.062;8.778;-85.1436;5.0;60.24744;12.847223;77.66102;;NaN;;926.0;;0 / 0;1337;2017-10-03 21:16:56:211
14.226304;-4.951863;6.825996;9.118642;-3.60151;-0.223372;0.740332;-0.031624;6.423375;1.5501;-122.4643;222.6961;12.0;29.7134;3.1723;-48.851;286.4485;21.5462;-91.4032;5.0;60.24744;12.847223;77.66102;;NaN;;926.0;;0 / 0;1346;2017-10-03 21:16:56:220
14.226304;-4.951863;6.825996;9.118642;-3.60151;-0.223372;0.740332;-0.031624;6.423375;1.5501;-122.4643;222.6961;12.0;29.7134;3.1723;-48.851;286.4485;21.5462;-91.4032;5.0;60.24744;12.847223;77.66102;;NaN;;926.0;;0 / 0;1358;2017-10-03 21:16:56:232
17.625305;-5.376576;3.977347;9.118642;-3.60151;-0.223372;0.740332;-0.031624;6.423375;1.5501;-122.4643;222.6961;12.0;29.7134;3.1723;-48.851;286.4485;21.5462;-91.4032;5.0;60.24744;12.847223;77.66102;;NaN;;926.0;;0 / 0;1366;2017-10-03 21:16:56:240
17.625305;-5.376576;3.977347;9.118642;-3.60151;-0.223372;0.740332;-0.031624;6.423375;1.5501;-122.4643;222.6961;12.0;29.7134;3.1723;-48.851;286.4485;21.5462;-91.4032;5.0;60.24744;12.847223;77.66102;;NaN;;926.0;;0 / 0;1377;2017-10-03 21:16:56:251
17.625305;-5.376576;3.977347;8.280766;-5.2497;-0.199873;5.034284;2.379112;6.025835;44.1923;-31.9823;195.6638;12.0;29.7134;3.1723;-48.851;286.4485;21.5462;-91.4032;5.0;60.24744;12.847223;77.66102;;NaN;;926.0;;0 / 0;1386;2017-10-03 21:16:56:260
17.625305;-5.376576;3.977347;8.280766;-5.2497;-0.199873;5.034284;2.379112;6.025835;44.1923;-31.9823;195.6638;12.0;29.7134;3.1723;-48.851;286.4485;21.5462;-91.4032;5.0;60.24744;12.847223;77.66102;;NaN;;926.0;;0 / 0;1396;2017-10-03 21:16:56:270
16.211136;-6.550267;2.094184;8.280766;-5.2497;-0.199873;5.034284;2.379112;6.025835;44.1923;-31.9823;195.6638;12.0;29.7134;3.1723;-48.851;286.4485;21.5462;-91.4032;5.0;60.24744;12.847223;77.66102;;NaN;;926.0;;0 / 0;1406;2017-10-03 21:16:56:280
16.211136;-6.550267;2.094184;8.280766;-5.2497;-0.199873;5.034284;2.379112;6.025835;44.1923;-31.9823;195.6638;12.0;28.3035;2.684;-50.0565;290.2225;32.3656;-91.3827;5.0;60.24744;12.847223;77.66102;;NaN;;926.0;;0 / 0;1416;2017-10-03 21:16:56:290
16.211136;-6.550267;2.094184;8.280766;-5.2497;-0.199873;5.034284;2.379112;6.025835;44.1923;-31.9823;195.6638;12.0;28.3035;2.684;-50.0565;290.2225;32.3656;-91.3827;5.0;60.24744;12.847223;77.66102;;NaN;;926.0;;0 / 0;1426;2017-10-03 21:16:56:300
16.211136;-6.550267;2.094184;8.280766;-5.2497;-0.199873;5.034284;2.379112;6.025835;44.1923;-31.9823;195.6638;12.0;28.3035;2.684;-50.0565;290.2225;32.3656;-91.3827;5.0;60.24744;12.847223;77.66102;;NaN;;926.0;;0 / 0;1437;2017-10-03 21:16:56:311
16.211136;-6.550267;2.094184;8.280766;-5.2497;-0.199873;5.034284;2.379112;6.025835;44.1923;-31.9823;195.6638;12.0;28.3035;2.684;-50.0565;290.2225;32.3656;-91.3827;5.0;60.24744;12.847223;77.66102;;NaN;;926.0;;0 / 0;1447;2017-10-03 21:16:56:321
16.628695;-7.21906;1.044929;7.486004;-6.298375;0.67867;7.678977;2.416221;1.536446;33.862;85.7811;145.8238;12.0;28.3035;2.684;-50.0565;290.2225;32.3656;-91.3827;5.0;60.24744;12.847223;77.66102;;NaN;;926.0;;0 / 0;1457;2017-10-03 21:16:56:331
16.628695;-7.21906;1.044929;7.486004;-6.298375;0.67867;7.678977;2.416221;1.536446;33.862;85.7811;145.8238;0.0;28.3035;2.684;-50.0565;290.2225;32.3656;-91.3827;5.0;58.13787;12.847223;77.66102;;NaN;;926.0;;0 / 0;1467;2017-10-03 21:16:56:341
16.628695;-7.21906;1.044929;7.486004;-6.298375;0.67867;7.678977;2.416221;1.536446;33.862;85.7811;145.8238;0.0;28.3035;2.684;-50.0565;290.2225;32.3656;-91.3827;5.0;58.13787;12.847223;77.66102;;NaN;;926.0;;0 / 0;1477;2017-10-03 21:16:56:351
16.628695;-7.21906;1.044929;7.486004;-6.298375;0.67867;7.678977;2.416221;1.536446;33.862;85.7811;145.8238;0.0;26.799;2.1317;-51.5335;286.2329;39.9602;-84.8198;5.0;58.13787;12.847223;77.66102;;NaN;;926.0;;0 / 0;1487;2017-10-03 21:16:56:361
16.628695;-7.21906;1.044929;7.486004;-6.298375;0.67867;7.678977;2.416221;1.536446;33.862;85.7811;145.8238;0.0;26.799;2.1317;-51.5335;286.2329;39.9602;-84.8198;5.0;58.13787;12.847223;77.66102;;NaN;;926.0;;0 / 0;1496;2017-10-03 21:16:56:370
17.798782;-7.666508;0.657294;6.888632;-6.874903;1.205339;7.754387;2.05176;-1.210674;18.607;61.0245;94.8577;0.0;26.799;2.1317;-51.5335;286.2329;39.9602;-84.8198;5.0;58.13787;12.847223;77.66102;;NaN;;926.0;;0 / 0;1506;2017-10-03 21:16:56:380
17.798782;-7.666508;0.657294;6.888632;-6.874903;1.205339;7.754387;2.05176;-1.210674;18.607;61.0245;94.8577;0.0;26.799;2.1317;-51.5335;286.2329;39.9602;-84.8198;5.0;58.13787;12.847223;77.66102;;NaN;;926.0;;0 / 0;1516;2017-10-03 21:16:56:390
17.798782;-7.666508;0.657294;6.888632;-6.874903;1.205339;7.754387;2.05176;-1.210674;18.607;61.0245;94.8577;0.0;26.799;2.1317;-51.5335;286.2329;39.9602;-84.8198;0.0;58.13787;12.847223;77.66102;;NaN;;926.0;;0 / 0;1526;2017-10-03 21:16:56:400
15.170274;-8.096028;3.224799;6.888632;-6.874903;1.205339;7.754387;2.05176;-1.210674;18.607;61.0245;94.8577;0.0;26.799;2.1317;-51.5335;286.2329;39.9602;-84.8198;0.0;58.13787;12.847223;77.66102;;NaN;;926.0;;0 / 0;1537;2017-10-03 21:16:56:411
15.170274;-8.096028;3.224799;6.888632;-6.874903;1.205339;7.754387;2.05176;-1.210674;18.607;61.0245;94.8577;0.0;25.2106;1.4954;-53.4836;281.5727;44.5109;-80.0751;0.0;58.13787;12.847223;77.66102;;NaN;;926.0;;0 / 0;1547;2017-10-03 21:16:56:421
15.170274;-8.096028;3.224799;6.734263;-6.970357;1.494727;7.721148;1.573291;0.9288;-18.2774;61.7537;21.7884;0.0;25.2106;1.4954;-53.4836;281.5727;44.5109;-80.0751;0.0;58.13787;12.847223;77.66102;;NaN;;926.0;;0 / 0;1557;2017-10-03 21:16:56:431
15.170274;-8.096028;3.224799;6.734263;-6.970357;1.494727;7.721148;1.573291;0.9288;-18.2774;61.7537;21.7884;0.0;25.2106;1.4954;-53.4836;281.5727;44.5109;-80.0751;0.0;58.13787;12.847223;77.66102;;NaN;;926.0;;0 / 0;1567;2017-10-03 21:16:56:441
14.623506;-8.097218;3.631583;6.734263;-6.970357;1.494727;7.721148;1.573291;0.9288;-18.2774;61.7537;21.7884;0.0;25.2106;1.4954;-53.4836;281.5727;44.5109;-80.0751;0.0;58.13787;12.847223;77.66102;;NaN;;926.0;;0 / 0;1577;2017-10-03 21:16:56:451
14.623506;-8.097218;3.631583;6.734263;-6.970357;1.494727;7.721148;1.573291;0.9288;-18.2774;61.7537;21.7884;0.0;25.2106;1.4954;-53.4836;281.5727;44.5109;-80.0751;0.0;58.13787;12.847223;77.66102;;NaN;;926.0;;0 / 0;1587;2017-10-03 21:16:56:461
14.623506;-8.097218;3.631583;6.734263;-6.970357;1.494727;7.721148;1.573291;0.9288;-18.2774;61.7537;21.7884;0.0;25.2106;1.4954;-53.4836;281.5727;44.5109;-80.0751;0.0;58.13787;12.847223;77.66102;;NaN;;926.0;;0 / 0;1597;2017-10-03 21:16:56:471
14.623506;-8.097218;3.631583;6.734263;-6.970357;1.494727;7.721148;1.573291;0.9288;-18.2774;61.7537;21.7884;0.0;25.2106;1.4954;-53.4836;281.5727;44.5109;-80.0751;0.0;58.13787;12.847223;77.66102;;NaN;;926.0;;0 / 0;1607;2017-10-03 21:16:56:481
13.555116;-8.241994;2.374152;7.065676;-6.632634;1.501592;7.326638;1.279421;0.910033;32.4842;-31.7734;-31.8844;0.0;23.3582;1.1047;-56.1111;277.6742;45.2983;-77.4856;0.0;58.13787;12.847223;77.66102;;NaN;;926.0;;0 / 0;1617;2017-10-03 21:16:56:491
13.555116;-8.241994;2.374152;7.065676;-6.632634;1.501592;7.326638;1.279421;0.910033;32.4842;-31.7734;-31.8844;0.0;23.3582;1.1047;-56.1111;277.6742;45.2983;-77.4856;0.0;58.13787;12.847223;77.66102;;NaN;;926.0;;0 / 0;1626;2017-10-03 21:16:56:500
13.555116;-8.241994;2.374152;7.065676;-6.632634;1.501592;7.326638;1.279421;0.910033;32.4842;-31.7734;-31.8844;0.0;23.3582;1.1047;-56.1111;277.6742;45.2983;-77.4856;0.0;58.13787;12.847223;77.66102;;NaN;;926.0;;0 / 0;1637;2017-10-03 21:16:56:511
13.555116;-8.241994;2.374152;7.065676;-6.632634;1.501592;7.326638;1.279421;0.910033;32.4842;-31.7734;-31.8844;0.0;23.3582;1.1047;-56.1111;277.6742;45.2983;-77.4856;0.0;58.13787;12.847223;77.66102;;NaN;;926.0;;0 / 0;1646;2017-10-03 21:16:56:520
11.753312;-8.129521;3.223594;7.065676;-6.632634;1.501592;7.326638;1.279421;0.910033;32.4842;-31.7734;-31.8844;0.0;23.3582;1.1047;-56.1111;277.6742;45.2983;-77.4856;0.0;58.13787;12.847223;77.66102;;NaN;;926.0;;0 / 0;1656;2017-10-03 21:16:56:530
11.753312;-8.129521;3.223594;7.065676;-6.632634;1.501592;7.326638;1.279421;0.910033;32.4842;-31.7734;-31.8844;0.0;23.3582;1.1047;-56.1111;277.6742;45.2983;-77.4856;0.0;58.13787;12.847223;77.66102;;NaN;;926.0;;0 / 0;1667;2017-10-03 21:16:56:541
11.753312;-8.129521;3.223594;7.673005;-5.958286;1.339481;4.7008;0.410322;1.205842;53.1465;-69.532;-76.2122;0.0;23.3582;1.1047;-56.1111;277.6742;45.2983;-77.4856;0.0;58.13787;12.847223;77.66102;;NaN;;926.0;;0 / 0;1676;2017-10-03 21:16:56:550
11.753312;-8.129521;3.223594;7.673005;-5.958286;1.339481;4.7008;0.410322;1.205842;53.1465;-69.532;-76.2122;0.0;20.9015;0.8224;-58.96;276.6513;37.4144;-80.0976;0.0;58.13787;12.847223;77.66102;;NaN;;926.0;;0 / 0;1686;2017-10-03 21:16:56:560
9.075746;-8.401112;-1.300027;7.673005;-5.958286;1.339481;4.7008;0.410322;1.205842;53.1465;-69.532;-76.2122;0.0;20.9015;0.8224;-58.96;276.6513;37.4144;-80.0976;0.0;58.13787;12.847223;77.66102;;NaN;;926.0;;0 / 0;1696;2017-10-03 21:16:56:570
9.075746;-8.401112;-1.300027;7.673005;-5.958286;1.339481;4.7008;0.410322;1.205842;53.1465;-69.532;-76.2122;0.0;20.9015;0.8224;-58.96;276.6513;37.4144;-80.0976;0.0;58.13787;12.847223;77.66102;;NaN;;926.0;;0 / 0;1706;2017-10-03 21:16:56:580
9.075746;-8.401112;-1.300027;7.673005;-5.958286;1.339481;4.7008;0.410322;1.205842;53.1465;-69.532;-76.2122;0.0;20.9015;0.8224;-58.96;276.6513;37.4144;-80.0976;0.0;58.13787;12.847223;77.66102;;NaN;;926.0;;0 / 0;1716;2017-10-03 21:16:56:590
10.340348;-7.969212;1.226783;8.177332;-5.317648;1.01205;0.974022;-0.4157;0.400981;31.0381;-64.4691;-76.3696;0.0;20.9015;0.8224;-58.96;276.6513;37.4144;-80.0976;0.0;58.13787;12.847223;77.66102;;NaN;;926.0;;0 / 0;1726;2017-10-03 21:16:56:600
10.340348;-7.969212;1.226783;8.177332;-5.317648;1.01205;0.974022;-0.4157;0.400981;31.0381;-64.4691;-76.3696;0.0;20.9015;0.8224;-58.96;276.6513;37.4144;-80.0976;0.0;58.13787;12.847223;77.66102;;NaN;;926.0;;0 / 0;1736;2017-10-03 21:16:56:610
10.340348;-7.969212;1.226783;8.177332;-5.317648;1.01205;0.974022;-0.4157;0.400981;31.0381;-64.4691;-76.3696;0.0;20.9015;0.8224;-58.96;276.6513;37.4144;-80.0976;0.0;58.13787;12.847223;77.66102;;NaN;;926.0;;0 / 0;1747;2017-10-03 21:16:56:621
10.340348;-7.969212;1.226783;8.177332;-5.317648;1.01205;0.974022;-0.4157;0.400981;31.0381;-64.4691;-76.3696;0.0;18.0222;0.7568;-62.0224;275.7314;32.8369;-82.9448;0.0;58.13787;12.847223;77.66102;;NaN;;926.0;;0 / 0;1756;2017-10-03 21:16:56:630
9.157106;-7.30161;1.897971;8.177332;-5.317648;1.01205;0.974022;-0.4157;0.400981;31.0381;-64.4691;-76.3696;0.0;18.0222;0.7568;-62.0224;275.7314;32.8369;-82.9448;0.0;58.13787;12.847223;77.66102;;NaN;;926.0;;0 / 0;1767;2017-10-03 21:16:56:641
9.157106;-7.30161;1.897971;8.177332;-5.317648;1.01205;0.974022;-0.4157;0.400981;31.0381;-64.4691;-76.3696;0.0;18.0222;0.7568;-62.0224;275.7314;32.8369;-82.9448;0.0;58.13787;12.847223;77.66102;;NaN;;926.0;;0 / 0;1777;2017-10-03 21:16:56:651
9.157106;-7.30161;1.897971;8.552346;-4.761316;0.598027;-1.662416;-0.673556;-1.479521;12.0211;-54.4125;-68.197;0.0;18.0222;0.7568;-62.0224;275.7314;32.8369;-82.9448;0.0;53.16829;12.847223;77.66102;;NaN;;926.0;;0 / 0;1787;2017-10-03 21:16:56:661
9.157106;-7.30161;1.897971;8.552346;-4.761316;0.598027;-1.662416;-0.673556;-1.479521;12.0211;-54.4125;-68.197;0.0;18.0222;0.7568;-62.0224;275.7314;32.8369;-82.9448;0.0;53.16829;12.847223;77.66102;;NaN;;926.0;;0 / 0;1798;2017-10-03 21:16:56:672
9.407152;-6.033406;0.323493;8.552346;-4.761316;0.598027;-1.662416;-0.673556;-1.479521;12.0211;-54.4125;-68.197;0.0;18.0222;0.7568;-62.0224;275.7314;32.8369;-82.9448;0.0;53.16829;12.847223;77.66102;;NaN;;926.0;;0 / 0;1806;2017-10-03 21:16:56:680
9.407152;-6.033406;0.323493;8.552346;-4.761316;0.598027;-1.662416;-0.673556;-1.479521;12.0211;-54.4125;-68.197;0.0;14.4928;0.5264;-64.8407;274.7366;29.0465;-86.0001;0.0;53.16829;12.847223;77.66102;;NaN;;926.0;;0 / 0;1816;2017-10-03 21:16:56:690
9.407152;-6.033406;0.323493;8.552346;-4.761316;0.598027;-1.662416;-0.673556;-1.479521;12.0211;-54.4125;-68.197;0.0;14.4928;0.5264;-64.8407;274.7366;29.0465;-86.0001;0.0;53.16829;12.847223;77.66102;;NaN;;926.0;;0 / 0;1826;2017-10-03 21:16:56:700
9.407152;-6.033406;0.323493;8.552346;-4.761316;0.598027;-1.662416;-0.673556;-1.479521;12.0211;-54.4125;-68.197;0.0;14.4928;0.5264;-64.8407;274.7366;29.0465;-86.0001;0.0;53.16829;12.847223;77.66102;;NaN;;926.0;;0 / 0;1837;2017-10-03 21:16:56:711
11.648026;-4.444585;3.395881;8.845022;-4.233129;0.128914;-0.697125;0.743005;0.258213;23.1689;-66.7317;-59.651;0.0;14.4928;0.5264;-64.8407;274.7366;29.0465;-86.0001;0.0;53.16829;12.847223;77.66102;;NaN;;926.0;;0 / 0;1846;2017-10-03 21:16:56:720
11.648026;-4.444585;3.395881;8.845022;-4.233129;0.128914;-0.697125;0.743005;0.258213;23.1689;-66.7317;-59.651;0.0;14.4928;0.5264;-64.8407;274.7366;29.0465;-86.0001;0.0;53.16829;12.847223;77.66102;;NaN;;926.0;;0 / 0;1856;2017-10-03 21:16:56:730
11.648026;-4.444585;3.395881;8.845022;-4.233129;0.128914;-0.697125;0.743005;0.258213;23.1689;-66.7317;-59.651;0.0;14.4928;0.5264;-64.8407;274.7366;29.0465;-86.0001;0.0;53.16829;12.847223;77.66102;;NaN;;926.0;;0 / 0;1866;2017-10-03 21:16:56:740
11.648026;-4.444585;3.395881;8.845022;-4.233129;0.128914;-0.697125;0.743005;0.258213;23.1689;-66.7317;-59.651;0.0;14.4928;0.5264;-64.8407;274.7366;29.0465;-86.0001;0.0;53.16829;12.847223;77.66102;;NaN;;926.0;;0 / 0;1876;2017-10-03 21:16:56:750
10.157304;-2.133107;-0.790353;8.845022;-4.233129;0.128914;-0.697125;0.743005;0.258213;23.1689;-66.7317;-59.651;0.0;10.6247;-0.0061;-67.7368;273.6269;25.5729;-89.165;0.0;53.16829;12.847223;77.66102;;NaN;;926.0;;0 / 0;1886;2017-10-03 21:16:56:760
10.157304;-2.133107;-0.790353;9.16676;-3.446023;-0.515575;-0.729019;2.899045;0.951568;22.3165;-83.2527;-84.2677;0.0;10.6247;-0.0061;-67.7368;273.6269;25.5729;-89.165;0.0;53.16829;12.847223;77.66102;;NaN;;926.0;;0 / 0;1896;2017-10-03 21:16:56:770
10.157304;-2.133107;-0.790353;9.16676;-3.446023;-0.515575;-0.729019;2.899045;0.951568;22.3165;-83.2527;-84.2677;0.0;10.6247;-0.0061;-67.7368;273.6269;25.5729;-89.165;0.0;53.16829;12.847223;77.66102;;NaN;;926.0;;0 / 0;1906;2017-10-03 21:16:56:780
9.676348;-0.11118;1.072455;9.16676;-3.446023;-0.515575;-0.729019;2.899045;0.951568;22.3165;-83.2527;-84.2677;0.0;10.6247;-0.0061;-67.7368;273.6269;25.5729;-89.165;0.0;53.16829;12.847223;77.66102;;NaN;;926.0;;0 / 0;1916;2017-10-03 21:16:56:790
9.676348;-0.11118;1.072455;9.16676;-3.446023;-0.515575;-0.729019;2.899045;0.951568;22.3165;-83.2527;-84.2677;0.0;10.6247;-0.0061;-67.7368;273.6269;25.5729;-89.165;0.0;53.16829;12.847223;77.66102;;NaN;;926.0;;0 / 0;1926;2017-10-03 21:16:56:800
9.676348;-0.11118;1.072455;9.16676;-3.446023;-0.515575;-0.729019;2.899045;0.951568;22.3165;-83.2527;-84.2677;0.0;10.6247;-0.0061;-67.7368;273.6269;25.5729;-89.165;0.0;53.16829;12.847223;77.66102;;NaN;;926.0;;0 / 0;1936;2017-10-03 21:16:56:810
9.676348;-0.11118;1.072455;9.16676;-3.446023;-0.515575;-0.729019;2.899045;0.951568;22.3165;-83.2527;-84.2677;0.0;6.2805;-0.8713;-69.9188;272.0998;20.5728;-93.2191;0.0;53.16829;12.847223;77.66102;;NaN;;926.0;;0 / 0;1946;2017-10-03 21:16:56:820
9.577044;0.741862;-2.690255;9.298742;-2.43513;-1.942661;-1.535356;5.159303;0.616936;10.8662;-158.4857;-102.9936;0.0;6.2805;-0.8713;-69.9188;272.0998;20.5728;-93.2191;0.0;53.16829;12.847223;77.66102;;NaN;;926.0;;0 / 0;1956;2017-10-03 21:16:56:830
9.577044;0.741862;-2.690255;9.298742;-2.43513;-1.942661;-1.535356;5.159303;0.616936;10.8662;-158.4857;-102.9936;0.0;6.2805;-0.8713;-69.9188;272.0998;20.5728;-93.2191;0.0;53.16829;12.847223;77.66102;;NaN;;926.0;;0 / 0;1966;2017-10-03 21:16:56:840
9.577044;0.741862;-2.690255;9.298742;-2.43513;-1.942661;-1.535356;5.159303;0.616936;10.8662;-158.4857;-102.9936;0.0;6.2805;-0.8713;-69.9188;272.0998;20.5728;-93.2191;0.0;53.16829;12.847223;77.66102;;NaN;;926.0;;0 / 0;1977;2017-10-03 21:16:56:851
9.577044;0.741862;-2.690255;9.298742;-2.43513;-1.942661;-1.535356;5.159303;0.616936;10.8662;-158.4857;-102.9936;0.0;6.2805;-0.8713;-69.9188;272.0998;20.5728;-93.2191;0.0;53.16829;12.847223;77.66102;;NaN;;926.0;;0 / 0;1987;2017-10-03 21:16:56:861
8.70247;-0.327733;-3.103021;9.298742;-2.43513;-1.942661;-1.535356;5.159303;0.616936;10.8662;-158.4857;-102.9936;0.0;6.2805;-0.8713;-69.9188;272.0998;20.5728;-93.2191;0.0;53.16829;12.847223;77.66102;;NaN;;926.0;;0 / 0;1997;2017-10-03 21:16:56:871
8.70247;-0.327733;-3.103021;9.298742;-2.43513;-1.942661;-1.535356;5.159303;0.616936;10.8662;-158.4857;-102.9936;0.0;6.2805;-0.8713;-69.9188;272.0998;20.5728;-93.2191;0.0;53.16829;12.847223;77.66102;;NaN;;926.0;;0 / 0;2006;2017-10-03 21:16:56:880
8.70247;-0.327733;-3.103021;9.353776;-1.519972;-2.523286;-1.552553;4.212053;1.203239;37.8749;-71.7308;-101.593;0.0;3.1784;-2.4124;-70.9534;271.1322;8.9164;-105.0968;0.0;53.16829;12.847223;77.66102;;NaN;;926.0;;0 / 0;2016;2017-10-03 21:16:56:890
8.70247;-0.327733;-3.103021;9.353776;-1.519972;-2.523286;-1.552553;4.212053;1.203239;37.8749;-71.7308;-101.593;0.0;3.1784;-2.4124;-70.9534;271.1322;8.9164;-105.0968;0.0;53.16829;12.847223;77.66102;;NaN;;926.0;;0 / 0;2027;2017-10-03 21:16:56:901
11.880128;-0.211675;-2.905618;9.353776;-1.519972;-2.523286;-1.552553;4.212053;1.203239;37.8749;-71.7308;-101.593;0.0;3.1784;-2.4124;-70.9534;271.1322;8.9164;-105.0968;0.0;53.16829;12.847223;77.66102;;NaN;;926.0;;0 / 0;2036;2017-10-03 21:16:56:910
11.880128;-0.211675;-2.905618;9.353776;-1.519972;-2.523286;-1.552553;4.212053;1.203239;37.8749;-71.7308;-101.593;0.0;3.1784;-2.4124;-70.9534;271.1322;8.9164;-105.0968;0.0;53.16829;12.847223;77.66102;;NaN;;926.0;;0 / 0;2046;2017-10-03 21:16:56:920
11.880128;-0.211675;-2.905618;9.353776;-1.519972;-2.523286;-1.552553;4.212053;1.203239;37.8749;-71.7308;-101.593;0.0;3.1784;-2.4124;-70.9534;271.1322;8.9164;-105.0968;0.0;53.16829;12.847223;77.66102;;NaN;;926.0;;0 / 0;2056;2017-10-03 21:16:56:930
3.358094;-5.493825;4.040748;9.441444;-0.788582;-2.531339;-1.552553;4.212053;1.203239;89.1382;-10.8601;-97.4988;0.0;3.1784;-2.4124;-70.9534;271.1322;8.9164;-105.0968;0.0;53.16829;12.847223;77.66102;;NaN;;926.0;;0 / 0;2066;2017-10-03 21:16:56:940
3.358094;-5.493825;4.040748;9.441444;-0.788582;-2.531339;-1.175483;3.122985;-0.102936;89.1382;-10.8601;-97.4988;0.0;3.1784;-2.4124;-70.9534;271.1322;8.9164;-105.0968;0.0;53.16829;12.847223;77.66102;;NaN;;926.0;;0 / 0;2076;2017-10-03 21:16:56:950
3.358094;-5.493825;4.040748;9.441444;-0.788582;-2.531339;-1.175483;3.122985;-0.102936;89.1382;-10.8601;-97.4988;0.0;1.6937;-5.1544;-71.4905;267.1821;4.6123;-105.0085;0.0;53.16829;12.847223;77.66102;;NaN;;926.0;;0 / 0;2087;2017-10-03 21:16:56:961
3.358094;-5.493825;4.040748;9.441444;-0.788582;-2.531339;-1.175483;3.122985;-0.102936;89.1382;-10.8601;-97.4988;0.0;1.6937;-5.1544;-71.4905;267.1821;4.6123;-105.0085;0.0;53.16829;12.847223;77.66102;;NaN;;926.0;;0 / 0;2096;2017-10-03 21:16:56:970
2.521805;-2.014668;-7.264138;9.441444;-0.788582;-2.531339;-1.175483;3.122985;-0.102936;89.1382;-10.8601;-97.4988;0.0;1.6937;-5.1544;-71.4905;267.1821;4.6123;-105.0085;0.0;67.87163;12.847223;77.66102;;NaN;;926.0;;0 / 0;2107;2017-10-03 21:16:56:981
2.521805;-2.014668;-7.264138;9.441444;-0.788582;-2.531339;-1.175483;3.122985;-0.102936;89.1382;-10.8601;-97.4988;0.0;1.6937;-5.1544;-71.4905;267.1821;4.6123;-105.0085;0.0;67.87163;12.847223;77.66102;;NaN;;926.0;;0 / 0;2116;2017-10-03 21:16:56:990
2.521805;-2.014668;-7.264138;9.256412;-0.881666;-3.116395;-3.638439;0.288969;1.396292;131.652;-73.9426;-29.3062;0.0;1.6937;-5.1544;-71.4905;267.1821;4.6123;-105.0085;0.0;67.87163;12.847223;77.66102;;NaN;;926.0;;0 / 0;2126;2017-10-03 21:16:57:000
2.521805;-2.014668;-7.264138;9.256412;-0.881666;-3.116395;-3.638439;0.288969;1.396292;131.652;-73.9426;-29.3062;0.0;1.6937;-5.1544;-71.4905;267.1821;4.6123;-105.0085;0.0;67.87163;12.847223;77.66102;;NaN;;926.0;;0 / 0;2136;2017-10-03 21:16:57:010
8.853212;-7.274083;-3.131738;9.256412;-0.881666;-3.116395;-3.638439;0.288969;1.396292;131.652;-73.9426;-29.3062;0.0;1.6937;-5.1544;-71.4905;267.1821;4.6123;-105.0085;0.0;67.87163;12.847223;77.66102;;NaN;;926.0;;0 / 0;2147;2017-10-03 21:16:57:021
8.853212;-7.274083;-3.131738;9.256412;-0.881666;-3.116395;-3.638439;0.288969;1.396292;131.652;-73.9426;-29.3062;0.0;-2.1606;-7.6324;-71.5317;264.9613;5.1581;-108.607;0.0;67.87163;12.847223;77.66102;;NaN;;926.0;;0 / 0;2157;2017-10-03 21:16:57:031
8.853212;-7.274083;-3.131738;9.256412;-0.881666;-3.116395;-3.638439;0.288969;1.396292;131.652;-73.9426;-29.3062;0.0;-2.1606;-7.6324;-71.5317;264.9613;5.1581;-108.607;0.0;67.87163;12.847223;77.66102;;NaN;;926.0;;0 / 0;2166;2017-10-03 21:16:57:040
8.853212;-7.274083;-3.131738;9.256412;-0.881666;-3.116395;-3.638439;0.288969;1.396292;131.652;-73.9426;-29.3062;0.0;-2.1606;-7.6324;-71.5317;264.9613;5.1581;-108.607;0.0;67.87163;12.847223;77.66102;;NaN;;926.0;;0 / 0;2176;2017-10-03 21:16:57:050
14.124604;-7.205891;3.059699;9.147502;-2.271204;-2.708367;-3.367622;-0.151489;-1.63399;59.283;40.398;130.9543;0.0;-2.1606;-7.6324;-71.5317;264.9613;5.1581;-108.607;0.0;67.87163;12.847223;77.66102;;NaN;;926.0;;0 / 0;2186;2017-10-03 21:16:57:060
14.124604;-7.205891;3.059699;9.147502;-2.271204;-2.708367;-3.367622;-0.151489;-1.63399;59.283;40.398;130.9543;0.0;-2.1606;-7.6324;-71.5317;264.9613;5.1581;-108.607;0.0;67.87163;12.847223;77.66102;;NaN;;926.0;;0 / 0;2198;2017-10-03 21:16:57:072
14.124604;-7.205891;3.059699;9.147502;-2.271204;-2.708367;-3.367622;-0.151489;-1.63399;59.283;40.398;130.9543;0.0;-2.1606;-7.6324;-71.5317;264.9613;5.1581;-108.607;0.0;67.87163;12.847223;77.66102;;NaN;;926.0;;0 / 0;2207;2017-10-03 21:16:57:081
14.124604;-9.487446;0.68122;9.147502;-2.271204;-2.708367;-3.367622;-0.151489;-1.63399;59.283;40.398;130.9543;0.0;-8.139;-10.4767;-72.1695;264.5761;13.3912;-106.4928;0.0;67.87163;12.847223;77.66102;;NaN;;926.0;;0 / 0;2216;2017-10-03 21:16:57:090
4.123795;-9.487446;0.68122;9.147502;-2.271204;-2.708367;-3.367622;-0.151489;-1.63399;59.283;40.398;130.9543;0.0;-8.139;-10.4767;-72.1695;264.5761;13.3912;-106.4928;0.0;67.87163;12.847223;77.66102;;NaN;;926.0;;0 / 0;2226;2017-10-03 21:16:57:100
4.123795;-9.487446;0.68122;8.781002;-3.738589;-2.255518;-0.680163;-1.943185;4.054005;51.2502;26.45;145.6253;0.0;-8.139;-10.4767;-72.1695;264.5761;13.3912;-106.4928;0.0;67.87163;12.847223;77.66102;;NaN;;926.0;;0 / 0;2236;2017-10-03 21:16:57:110
4.123795;-9.487446;0.68122;8.781002;-3.738589;-2.255518;-0.680163;-1.943185;4.054005;51.2502;26.45;145.6253;0.0;-8.139;-10.4767;-72.1695;264.5761;13.3912;-106.4928;0.0;67.87163;12.847223;77.66102;;NaN;;926.0;;0 / 0;2246;2017-10-03 21:16:57:120
12.609942;-16.737703;-9.564842;8.781002;-3.738589;-2.255518;-0.680163;-1.943185;4.054005;51.2502;26.45;145.6253;0.0;-8.139;-10.4767;-72.1695;264.5761;13.3912;-106.4928;0.0;67.87163;12.847223;77.66102;;NaN;;926.0;;0 / 0;2257;2017-10-03 21:16:57:131
12.609942;-16.737703;-9.564842;8.781002;-3.738589;-2.255518;-0.680163;-1.943185;4.054005;51.2502;26.45;145.6253;0.0;-8.139;-10.4767;-72.1695;264.5761;13.3912;-106.4928;0.0;67.87163;12.847223;77.66102;;NaN;;926.0;;0 / 0;2267;2017-10-03 21:16:57:141
12.609942;-16.737703;-9.564842;8.781002;-3.738589;-2.255518;-0.680163;-1.943185;4.054005;51.2502;26.45;145.6253;0.0;-8.139;-10.4767;-72.1695;264.5761;13.3912;-106.4928;0.0;67.87163;12.847223;77.66102;;NaN;;926.0;;0 / 0;2276;2017-10-03 21:16:57:150
12.609942;-16.737703;-9.564842;8.781002;-3.738589;-2.255518;-0.680163;-1.943185;4.054005;51.2502;26.45;145.6253;0.0;-13.3255;-13.1699;-72.023;262.2048;22.4099;-104.4057;0.0;67.87163;12.847223;77.66102;;NaN;;926.0;;0 / 0;2286;2017-10-03 21:16:57:160
14.750322;-11.35265;12.297188;7.852401;-5.399483;-2.314255;1.668684;-6.428109;-0.65343;-157.893;81.0801;232.5779;0.0;-13.3255;-13.1699;-72.023;262.2048;22.4099;-104.4057;0.0;67.87163;12.847223;77.66102;;NaN;;926.0;;0 / 0;2296;2017-10-03 21:16:57:170
14.750322;-11.35265;12.297188;7.852401;-5.399483;-2.314255;1.668684;-6.428109;-0.65343;-157.893;81.0801;232.5779;0.0;-13.3255;-13.1699;-72.023;262.2048;22.4099;-104.4057;0.0;67.87163;12.847223;77.66102;;NaN;;926.0;;0 / 0;2306;2017-10-03 21:16:57:180
14.750322;-11.35265;12.297188;7.852401;-5.399483;-2.314255;1.668684;-6.428109;-0.65343;-157.893;81.0801;232.5779;0.0;-13.3255;-13.1699;-72.023;262.2048;22.4099;-104.4057;0.0;67.87163;12.847223;77.66102;;NaN;;926.0;;0 / 0;2317;2017-10-03 21:16:57:191
14.750322;-11.35265;12.297188;7.852401;-5.399483;-2.314255;1.668684;-6.428109;-0.65343;-157.893;81.0801;232.5779;0.0;-13.3255;-13.1699;-72.023;262.2048;22.4099;-104.4057;0.0;67.87163;12.847223;77.66102;;NaN;;926.0;;0 / 0;2327;2017-10-03 21:16:57:201
6.432877;-11.649372;-2.375604;7.852401;-5.399483;-2.314255;1.668684;-6.428109;-0.65343;-157.893;81.0801;232.5779;0.0;-13.3255;-13.1699;-72.023;262.2048;22.4099;-104.4057;0.0;67.87163;12.847223;77.66102;;NaN;;926.0;;0 / 0;2337;2017-10-03 21:16:57:211
6.432877;-11.649372;-2.375604;7.852401;-5.399483;-2.314255;1.668684;-6.428109;-0.65343;-157.893;81.0801;232.5779;0.0;-13.3255;-13.1699;-72.023;262.2048;22.4099;-104.4057;0.0;67.87163;12.847223;77.66102;;NaN;;926.0;;0 / 0;2346;2017-10-03 21:16:57:220
6.432877;-11.649372;-2.375604;7.353884;-6.068126;-2.295348;2.109616;-5.691914;-0.651828;-41.0913;31.5662;95.5457;0.0;-17.3538;-14.534;-71.2952;263.1618;38.2269;-107.3346;0.0;67.87163;12.847223;77.66102;;NaN;;926.0;;0 / 0;2356;2017-10-03 21:16:57:230
6.432877;-11.649372;-2.375604;7.353884;-6.068126;-2.295348;2.109616;-5.691914;-0.651828;-41.0913;31.5662;95.5457;0.0;-17.3538;-14.534;-71.2952;263.1618;38.2269;-107.3346;0.0;67.87163;12.847223;77.66102;;NaN;;926.0;;0 / 0;2367;2017-10-03 21:16:57:241
9.579438;-9.11536;-1.136117;7.353884;-6.068126;-2.295348;2.109616;-5.691914;-0.651828;-41.0913;31.5662;95.5457;0.0;-17.3538;-14.534;-71.2952;263.1618;38.2269;-107.3346;0.0;67.87163;12.847223;77.66102;;NaN;;926.0;;0 / 0;2376;2017-10-03 21:16:57:250
9.579438;-9.11536;-1.136117;7.353884;-6.068126;-2.295348;2.109616;-5.691914;-0.651828;-41.0913;31.5662;95.5457;0.0;-17.3538;-14.534;-71.2952;263.1618;38.2269;-107.3346;0.0;67.87163;12.847223;77.66102;;NaN;;926.0;;0 / 0;2386;2017-10-03 21:16:57:260
9.579438;-9.11536;-1.136117;7.353884;-6.068126;-2.295348;2.109616;-5.691914;-0.651828;-41.0913;31.5662;95.5457;0.0;-17.3538;-14.534;-71.2952;263.1618;38.2269;-107.3346;0.0;67.87163;12.847223;77.66102;;NaN;;926.0;;0 / 0;2396;2017-10-03 21:16:57:270
1.459397;-8.535114;1.833366;6.919889;-6.743694;-1.675745;2.028682;-1.011054;3.455168;42.1675;40.4732;83.8961;0.0;-17.3538;-14.534;-71.2952;263.1618;38.2269;-107.3346;0.0;67.87163;12.847223;77.66102;;NaN;;926.0;;0 / 0;2407;2017-10-03 21:16:57:281
1.459397;-8.535114;1.833366;6.919889;-6.743694;-1.675745;2.028682;-1.011054;3.455168;42.1675;40.4732;83.8961;0.0;-18.5913;-13.7558;-71.2051;261.2025;43.4456;-103.6129;0.0;67.87163;12.847223;77.66102;;NaN;;926.0;;0 / 0;2417;2017-10-03 21:16:57:291
1.459397;-8.535114;1.833366;6.919889;-6.743694;-1.675745;2.028682;-1.011054;3.455168;42.1675;40.4732;83.8961;0.0;-18.5913;-13.7558;-71.2051;261.2025;43.4456;-103.6129;0.0;67.87163;12.847223;77.66102;;NaN;;926.0;;0 / 0;2426;2017-10-03 21:16:57:300
1.459397;-8.535114;1.833366;6.919889;-6.743694;-1.675745;2.028682;-1.011054;3.455168;42.1675;40.4732;83.8961;0.0;-18.5913;-13.7558;-71.2051;261.2025;43.4456;-103.6129;0.0;73.33911;12.847223;77.66102;;NaN;;926.0;;0 / 0;2436;2017-10-03 21:16:57:310
0.400574;-9.77219;0.388099;6.919889;-6.743694;-1.675745;2.028682;-1.011054;3.455168;42.1675;40.4732;83.8961;0.0;-18.5913;-13.7558;-71.2051;261.2025;43.4456;-103.6129;0.0;73.33911;12.847223;77.66102;;NaN;;926.0;;0 / 0;2447;2017-10-03 21:16:57:321
0.400574;-9.77219;0.388099;6.919889;-6.743694;-1.675745;2.028682;-1.011054;3.455168;42.1675;40.4732;83.8961;0.0;-18.5913;-13.7558;-71.2051;261.2025;43.4456;-103.6129;0.0;73.33911;12.847223;77.66102;;NaN;;926.0;;0 / 0;2456;2017-10-03 21:16:57:330
0.400574;-9.77219;0.388099;4.00146;-8.862276;-1.272312;-1.57153;2.671041;1.210014;64.282;-23.1042;360.7608;0.0;-18.5913;-13.7558;-71.2051;261.2025;43.4456;-103.6129;0.0;73.33911;12.847223;77.66102;;NaN;;926.0;;0 / 0;2466;2017-10-03 21:16:57:340
0.400574;-9.77219;0.388099;4.00146;-8.862276;-1.272312;-1.57153;2.671041;1.210014;64.282;-23.1042;360.7608;0.0;-18.5913;-13.7558;-71.2051;261.2025;43.4456;-103.6129;0.0;73.33911;12.847223;77.66102;;NaN;;926.0;;0 / 0;2476;2017-10-03 21:16:57:350
7.334962;-9.883458;0.613029;4.00146;-8.862276;-1.272312;-1.57153;2.671041;1.210014;64.282;-23.1042;360.7608;0.0;-16.806;-9.3384;-71.5317;270.949;64.6489;-107.6387;0.0;73.33911;12.847223;77.66102;;NaN;;926.0;;0 / 0;2486;2017-10-03 21:16:57:360
7.334962;-9.883458;0.613029;4.00146;-8.862276;-1.272312;-1.57153;2.671041;1.210014;64.282;-23.1042;360.7608;0.0;-16.806;-9.3384;-71.5317;270.949;64.6489;-107.6387;0.0;73.33911;12.847223;77.66102;;NaN;;926.0;;0 / 0;2496;2017-10-03 21:16:57:370
7.334962;-9.883458;0.613029;4.00146;-8.862276;-1.272312;-1.57153;2.671041;1.210014;64.282;-23.1042;360.7608;0.0;-16.806;-9.3384;-71.5317;270.949;64.6489;-107.6387;0.0;73.33911;12.847223;77.66102;;NaN;;926.0;;0 / 0;2507;2017-10-03 21:16:57:381
7.334962;-9.883458;0.613029;4.00146;-8.862276;-1.272312;-1.57153;2.671041;1.210014;64.282;-23.1042;360.7608;0.0;-16.806;-9.3384;-71.5317;270.949;64.6489;-107.6387;0.0;73.33911;12.847223;77.66102;;NaN;;926.0;;0 / 0;2516;2017-10-03 21:16:57:390
2.914231;-7.79453;-0.809503;-0.181623;-9.790792;-0.527032;2.412304;2.073433;0.68798;88.5612;-68.3133;429.7927;0.0;-16.806;-9.3384;-71.5317;270.949;64.6489;-107.6387;0.0;73.33911;12.847223;77.66102;;NaN;;926.0;;0 / 0;2526;2017-10-03 21:16:57:400
2.914231;-7.79453;-0.809503;-0.181623;-9.790792;-0.527032;2.412304;2.073433;0.68798;88.5612;-68.3133;429.7927;0.0;-16.806;-9.3384;-71.5317;270.949;64.6489;-107.6387;0.0;73.33911;12.847223;77.66102;;NaN;;926.0;;0 / 0;2536;2017-10-03 21:16:57:410
2.914231;-7.79453;-0.809503;-0.181623;-9.790792;-0.527032;2.412304;2.073433;0.68798;88.5612;-68.3133;429.7927;0.0;-16.806;-9.3384;-71.5317;270.949;64.6489;-107.6387;0.0;73.33911;12.847223;77.66102;;NaN;;926.0;;0 / 0;2546;2017-10-03 21:16:57:420
3.242051;-7.91776;1.798682;-0.181623;-9.790792;-0.527032;2.412304;2.073433;0.68798;88.5612;-68.3133;429.7927;0.0;-14.2044;-3.5019;-72.2107;8.0489;86.7413;160.9853;0.0;73.33911;12.847223;77.66102;;NaN;;926.0;;0 / 0;2557;2017-10-03 21:16:57:431
3.242051;-7.91776;1.798682;-0.181623;-9.790792;-0.527032;2.412304;2.073433;0.68798;88.5612;-68.3133;429.7927;0.0;-14.2044;-3.5019;-72.2107;8.0489;86.7413;160.9853;0.0;73.33911;12.847223;77.66102;;NaN;;926.0;;0 / 0;2566;2017-10-03 21:16:57:440
3.242051;-7.91776;1.798682;-0.181623;-9.790792;-0.527032;2.412304;2.073433;0.68798;82.2027;57.0868;253.4842;0.0;-14.2044;-3.5019;-72.2107;8.0489;86.7413;160.9853;0.0;73.33911;12.847223;77.66102;;NaN;;926.0;;0 / 0;2576;2017-10-03 21:16:57:450
3.242051;-7.91776;1.798682;-2.579731;-9.460038;0.151748;4.953657;4.123481;-0.232479;82.2027;57.0868;253.4842;0.0;-14.2044;-3.5019;-72.2107;8.0489;86.7413;160.9853;0.0;73.33911;12.847223;77.66102;;NaN;;926.0;;0 / 0;2587;2017-10-03 21:16:57:461
1.241639;-7.11736;1.998481;-2.579731;-9.460038;0.151748;4.953657;4.123481;-0.232479;82.2027;57.0868;253.4842;0.0;-14.2044;-3.5019;-72.2107;8.0489;86.7413;160.9853;0.0;73.33911;12.847223;77.66102;;NaN;;926.0;;0 / 0;2596;2017-10-03 21:16:57:470
1.241639;-7.11736;1.998481;-2.579731;-9.460038;0.151748;4.953657;4.123481;-0.232479;82.2027;57.0868;253.4842;0.0;-14.2044;-3.5019;-72.2107;8.0489;86.7413;160.9853;0.0;73.33911;12.847223;77.66102;;NaN;;926.0;;0 / 0;2606;2017-10-03 21:16:57:480
1.241639;-7.11736;1.998481;-2.579731;-9.460038;0.151748;4.953657;4.123481;-0.232479;82.2027;57.0868;253.4842;0.0;-14.2044;-3.5019;-72.2107;8.0489;86.7413;160.9853;0.0;73.33911;12.847223;77.66102;;NaN;;926.0;;0 / 0;2616;2017-10-03 21:16:57:490
1.241639;-7.11736;1.998481;-2.579731;-9.460038;0.151748;4.953657;4.123481;-0.232479;82.2027;57.0868;253.4842;0.0;-12.6678;-4.1351;-73.3429;84.3157;74.7213;86.6336;0.0;73.33911;12.847223;77.66102;;NaN;;926.0;;0 / 0;2626;2017-10-03 21:16:57:500
-4.606414;-27.15366;2.875449;-3.458911;-9.106592;1.129741;2.264225;0.037051;0.403484;103.6755;-3.9648;99.4834;0.0;-12.6678;-4.1351;-73.3429;84.3157;74.7213;86.6336;0.0;73.33911;12.847223;77.66102;;NaN;;926.0;;0 / 0;2636;2017-10-03 21:16:57:510
-4.606414;-27.15366;2.875449;-3.458911;-9.106592;1.129741;2.264225;0.037051;0.403484;103.6755;-3.9648;99.4834;0.0;-12.6678;-4.1351;-73.3429;84.3157;74.7213;86.6336;0.0;73.33911;12.847223;77.66102;;NaN;;926.0;;0 / 0;2646;2017-10-03 21:16:57:520
-4.606414;-27.15366;2.875449;-3.458911;-9.106592;1.129741;2.264225;0.037051;0.403484;103.6755;-3.9648;99.4834;0.0;-12.6678;-4.1351;-73.3429;84.3157;74.7213;86.6336;0.0;73.33911;12.847223;77.66102;;NaN;;926.0;;0 / 0;2656;2017-10-03 21:16:57:530
-4.606414;-27.15366;2.875449;-3.458911;-9.106592;1.129741;2.264225;0.037051;0.403484;103.6755;-3.9648;99.4834;0.0;-12.6678;-4.1351;-73.3429;84.3157;74.7213;86.6336;0.0;73.33911;12.847223;77.66102;;NaN;;926.0;;0 / 0;2666;2017-10-03 21:16:57:540
4.736359;-15.68964;-3.336327;-3.458911;-9.106592;1.129741;2.264225;0.037051;0.403484;103.6755;-3.9648;99.4834;0.0;-12.6678;-4.1351;-73.3429;84.3157;74.7213;86.6336;0.0;73.33911;12.847223;77.66102;;NaN;;926.0;;0 / 0;2677;2017-10-03 21:16:57:551
4.736359;-15.68964;-3.336327;-3.458911;-9.106592;1.129741;2.264225;0.037051;0.403484;103.6755;-3.9648;99.4834;0.0;-12.6678;-4.1351;-73.3429;84.3157;74.7213;86.6336;0.0;73.33911;12.847223;77.66102;;NaN;;926.0;;0 / 0;2686;2017-10-03 21:16:57:560
4.736359;-15.68964;-3.336327;-3.97458;-8.735276;2.016938;4.862959;-7.80547;-2.445286;90.7075;-37.0574;77.8121;0.0;-12.2498;-5.2917;-73.7213;99.6526;68.2198;71.9121;0.0;73.33911;12.847223;77.66102;;NaN;;926.0;;0 / 0;2697;2017-10-03 21:16:57:571
4.736359;-15.68964;-3.336327;-3.97458;-8.735276;2.016938;4.862959;-7.80547;-2.445286;90.7075;-37.0574;77.8121;0.0;-12.2498;-5.2917;-73.7213;99.6526;68.2198;71.9121;0.0;73.33911;12.847223;77.66102;;NaN;;926.0;;0 / 0;2707;2017-10-03 21:16:57:581
1.573044;-15.780568;-1.644601;-3.97458;-8.735276;2.016938;4.862959;-7.80547;-2.445286;90.7075;-37.0574;77.8121;0.0;-12.2498;-5.2917;-73.7213;99.6526;68.2198;71.9121;0.0;73.33911;12.847223;77.66102;;NaN;;926.0;;0 / 0;2716;2017-10-03 21:16:57:590
1.573044;-15.780568;-1.644601;-3.97458;-8.735276;2.016938;4.862959;-7.80547;-2.445286;90.7075;-37.0574;77.8121;0.0;-12.2498;-5.2917;-73.7213;99.6526;68.2198;71.9121;0.0;73.33911;12.847223;77.66102;;NaN;;926.0;;0 / 0;2727;2017-10-03 21:16:57:601
1.573044;-15.780568;-1.644601;-3.97458;-8.735276;2.016938;4.862959;-7.80547;-2.445286;90.7075;-37.0574;77.8121;0.0;-12.2498;-5.2917;-73.7213;99.6526;68.2198;71.9121;0.0;73.33911;12.847223;77.66102;;NaN;;926.0;;0 / 0;2736;2017-10-03 21:16:57:610
-1.819976;-17.78696;0.336661;-4.014747;-8.695752;2.106197;4.933804;-7.781827;-2.552408;14.5932;-5.2657;18.7844;0.0;-12.2498;-5.2917;-73.7213;99.6526;68.2198;71.9121;0.0;73.33911;12.847223;77.66102;;NaN;;926.0;;0 / 0;2747;2017-10-03 21:16:57:621
-1.819976;-17.78696;0.336661;-4.014747;-8.695752;2.106197;4.933804;-7.781827;-2.552408;14.5932;-5.2657;18.7844;0.0;-12.027;-6.1447;-73.6664;108.5315;62.4639;62.3178;0.0;72.73561;12.847223;77.66102;;NaN;;926.0;;0 / 0;2757;2017-10-03 21:16:57:631
-1.819976;-17.78696;0.336661;-4.014747;-8.695752;2.106197;4.933804;-7.781827;-2.552408;14.5932;-5.2657;18.7844;0.0;-12.027;-6.1447;-73.6664;108.5315;62.4639;62.3178;0.0;72.73561;12.847223;77.66102;;NaN;;926.0;;0 / 0;2767;2017-10-03 21:16:57:641
-1.819976;-17.78696;0.336661;-4.014747;-8.695752;2.106197;4.933804;-7.781827;-2.552408;14.5932;-5.2657;18.7844;0.0;-12.027;-6.1447;-73.6664;108.5315;62.4639;62.3178;0.0;72.73561;12.847223;77.66102;;NaN;;926.0;;0 / 0;2776;2017-10-03 21:16:57:650
3.629685;-18.674686;-2.91758;-4.014747;-8.695752;2.106197;4.933804;-7.781827;-2.552408;14.5932;-5.2657;18.7844;0.0;-12.027;-6.1447;-73.6664;108.5315;62.4639;62.3178;0.0;72.73561;12.847223;77.66102;;NaN;;926.0;;0 / 0;2786;2017-10-03 21:16:57:660
3.629685;-18.674686;-2.91758;-4.014747;-8.695752;2.106197;4.933804;-7.781827;-2.552408;14.5932;-5.2657;18.7844;0.0;-12.027;-6.1447;-73.6664;108.5315;62.4639;62.3178;0.0;72.73561;12.847223;77.66102;;NaN;;926.0;;0 / 0;2796;2017-10-03 21:16:57:670
3.629685;-18.674686;-2.91758;-3.734894;-8.996954;1.129507;2.934118;-4.785322;-2.355975;-59.5252;105.0839;-43.8776;0.0;-12.027;-6.1447;-73.6664;108.5315;62.4639;62.3178;0.0;72.73561;12.847223;77.66102;;NaN;;926.0;;0 / 0;2806;2017-10-03 21:16:57:680
3.629685;-18.674686;-2.91758;-3.734894;-8.996954;1.129507;2.934118;-4.785322;-2.355975;-59.5252;105.0839;-43.8776;0.0;-12.027;-6.1447;-73.6664;108.5315;62.4639;62.3178;0.0;72.73561;12.847223;77.66102;;NaN;;926.0;;0 / 0;2816;2017-10-03 21:16:57:690
4.565278;-14.1032;-0.425454;-3.734894;-8.996954;1.129507;2.934118;-4.785322;-2.355975;-59.5252;105.0839;-43.8776;0.0;-10.8292;-6.6376;-73.2498;99.7183;66.5538;73.1736;0.0;72.73561;12.847223;77.66102;;NaN;;926.0;;0 / 0;2826;2017-10-03 21:16:57:700
4.565278;-14.1032;-0.425454;-3.734894;-8.996954;1.129507;2.934118;-4.785322;-2.355975;-59.5252;105.0839;-43.8776;0.0;-10.8292;-6.6376;-73.2498;99.7183;66.5538;73.1736;0.0;72.73561;12.847223;77.66102;;NaN;;926.0;;0 / 0;2837;2017-10-03 21:16:57:711
4.565278;-14.1032;-0.425454;-3.734894;-8.996954;1.129507;2.934118;-4.785322;-2.355975;-59.5252;105.0839;-43.8776;0.0;-10.8292;-6.6376;-73.2498;99.7183;66.5538;73.1736;0.0;72.73561;12.847223;77.66102;;NaN;;926.0;;0 / 0;2847;2017-10-03 21:16:57:721
4.565278;-14.1032;-0.425454;-3.734894;-8.996954;1.129507;2.934118;-4.785322;-2.355975;-59.5252;105.0839;-43.8776;0.0;-10.8292;-6.6376;-73.2498;99.7183;66.5538;73.1736;0.0;72.73561;12.847223;77.66102;;NaN;;926.0;;0 / 0;2856;2017-10-03 21:16:57:730
-1.456268;-16.162233;0.656104;-2.517879;-9.46961;-0.396438;4.651924;-4.531237;-2.05224;-150.648;30.615;-124.7339;0.0;-10.8292;-6.6376;-73.2498;99.7183;66.5538;73.1736;0.0;72.73561;12.847223;77.66102;;NaN;;926.0;;0 / 0;2866;2017-10-03 21:16:57:740
-1.456268;-16.162233;0.656104;-2.517879;-9.46961;-0.396438;4.651924;-4.531237;-2.05224;-150.648;30.615;-124.7339;0.0;-10.8292;-6.6376;-73.2498;99.7183;66.5538;73.1736;0.0;72.73561;12.847223;77.66102;;NaN;;926.0;;0 / 0;2876;2017-10-03 21:16:57:750
-1.456268;-16.162233;0.656104;-2.517879;-9.46961;-0.396438;4.651924;-4.531237;-2.05224;-150.648;30.615;-124.7339;0.0;-9.2194;-6.279;-73.6664;75.8026;74.935;98.9477;0.0;72.73561;12.847223;77.66102;;NaN;;926.0;;0 / 0;2886;2017-10-03 21:16:57:760
-1.456268;-16.162233;0.656104;-2.517879;-9.46961;-0.396438;4.651924;-4.531237;-2.05224;-150.648;30.615;-124.7339;0.0;-9.2194;-6.279;-73.6664;75.8026;74.935;98.9477;0.0;72.73561;12.847223;77.66102;;NaN;;926.0;;0 / 0;2896;2017-10-03 21:16:57:770
-7.604614;-17.698414;8.626594;-2.517879;-9.46961;-0.396438;4.651924;-4.531237;-2.05224;-150.648;30.615;-124.7339;0.0;-9.2194;-6.279;-73.6664;75.8026;74.935;98.9477;0.0;72.73561;12.847223;77.66102;;NaN;;926.0;;0 / 0;2906;2017-10-03 21:16:57:780
-7.604614;-17.698414;8.626594;-2.517879;-9.46961;-0.396438;4.651924;-4.531237;-2.05224;-150.648;30.615;-124.7339;0.0;-9.2194;-6.279;-73.6664;75.8026;74.935;98.9477;0.0;72.73561;12.847223;77.66102;;NaN;;926.0;;0 / 0;2917;2017-10-03 21:16:57:791
-7.604614;-17.698414;8.626594;-1.7;-9.554788;-1.409402;-1.577516;-3.900665;3.606826;-134.6472;-101.4584;-99.2369;0.0;-9.2194;-6.279;-73.6664;75.8026;74.935;98.9477;0.0;72.73561;12.847223;77.66102;;NaN;;926.0;;0 / 0;2927;2017-10-03 21:16:57:801
-7.604614;-17.698414;8.626594;-1.7;-9.554788;-1.409402;-1.577516;-3.900665;3.606826;-134.6472;-101.4584;-99.2369;0.0;-9.2194;-6.279;-73.6664;75.8026;74.935;98.9477;0.0;72.73561;12.847223;77.66102;;NaN;;926.0;;0 / 0;2936;2017-10-03 21:16:57:810
-1.943206;-14.917958;-0.53193;-1.7;-9.554788;-1.409402;-1.577516;-3.900665;3.606826;-134.6472;-101.4584;-99.2369;0.0;-9.2194;-6.279;-73.6664;75.8026;74.935;98.9477;0.0;72.73561;12.847223;77.66102;;NaN;;926.0;;0 / 0;2946;2017-10-03 21:16:57:820
-1.943206;-14.917958;-0.53193;-1.7;-9.554788;-1.409402;-1.577516;-3.900665;3.606826;-134.6472;-101.4584;-99.2369;0.0;-8.96;-6.6971;-73.2178;44.9345;76.9866;129.6608;0.0;72.73561;12.847223;77.66102;;NaN;;926.0;;0 / 0;2957;2017-10-03 21:16:57:831
-1.943206;-14.917958;-0.53193;-1.7;-9.554788;-1.409402;-1.577516;-3.900665;3.606826;-134.6472;-101.4584;-99.2369;0.0;-8.96;-6.6971;-73.2178;44.9345;76.9866;129.6608;0.0;72.73561;12.847223;77.66102;;NaN;;926.0;;0 / 0;2967;2017-10-03 21:16:57:841
-2.06285;-13.251362;0.347434;-0.831782;-9.557014;-2.035189;-4.526606;-3.191586;4.645209;-64.8451;87.2629;-81.1711;0.0;-8.96;-6.6971;-73.2178;44.9345;76.9866;129.6608;0.0;72.73561;12.847223;77.66102;;NaN;;926.0;;0 / 0;2979;2017-10-03 21:16:57:853
-2.06285;-13.251362;0.347434;-0.831782;-9.557014;-2.035189;-4.526606;-3.191586;4.645209;-64.8451;87.2629;-81.1711;0.0;-8.96;-6.6971;-73.2178;44.9345;76.9866;129.6608;0.0;72.73561;12.847223;77.66102;;NaN;;926.0;;0 / 0;2987;2017-10-03 21:16:57:861
-2.06285;-13.251362;0.347434;-0.831782;-9.557014;-2.035189;-4.526606;-3.191586;4.645209;-64.8451;87.2629;-81.1711;0.0;-8.96;-6.6971;-73.2178;44.9345;76.9866;129.6608;0.0;72.73561;12.847223;77.66102;;NaN;;926.0;;0 / 0;2996;2017-10-03 21:16:57:870
-2.06285;-13.251362;0.347434;-0.831782;-9.557014;-2.035189;-4.526606;-3.191586;4.645209;-64.8451;87.2629;-81.1711;0.0;-8.96;-6.6971;-73.2178;44.9345;76.9866;129.6608;0.0;72.73561;12.847223;77.66102;;NaN;;926.0;;0 / 0;3006;2017-10-03 21:16:57:880
-2.06285;-13.251362;0.347434;-0.831782;-9.557014;-2.035189;-4.526606;-3.191586;4.645209;-64.8451;87.2629;-81.1711;0.0;-8.96;-6.6971;-73.2178;44.9345;76.9866;129.6608;0.0;72.73561;12.847223;77.66102;;NaN;;926.0;;0 / 0;3016;2017-10-03 21:16:57:890
-0.592452;-10.056934;0.766166;-0.831782;-9.557014;-2.035189;-4.526606;-3.191586;4.645209;-64.8451;87.2629;-81.1711;0.0;-9.3475;-4.3549;-71.2296;15.5766;77.0444;157.7702;0.0;72.73561;12.847223;77.66102;;NaN;;926.0;;0 / 0;3027;2017-10-03 21:16:57:901
-0.592452;-10.056934;0.766166;0.426204;-9.546914;-2.201175;-2.877756;1.020106;2.61911;-19.5896;64.9447;-122.564;0.0;-9.3475;-4.3549;-71.2296;15.5766;77.0444;157.7702;0.0;72.73561;12.847223;77.66102;;NaN;;926.0;;0 / 0;3037;2017-10-03 21:16:57:911
-0.592452;-10.056934;0.766166;0.426204;-9.546914;-2.201175;-2.877756;1.020106;2.61911;-19.5896;64.9447;-122.564;0.0;-9.3475;-4.3549;-71.2296;15.5766;77.0444;157.7702;0.0;72.73561;12.847223;77.66102;;NaN;;926.0;;0 / 0;3046;2017-10-03 21:16:57:920
-0.587661;-6.176976;1.72689;0.426204;-9.546914;-2.201175;-2.877756;1.020106;2.61911;-19.5896;64.9447;-122.564;0.0;-9.3475;-4.3549;-71.2296;15.5766;77.0444;157.7702;0.0;72.73561;12.847223;77.66102;;NaN;;926.0;;0 / 0;3056;2017-10-03 21:16:57:930
-0.587661;-6.176976;1.72689;0.426204;-9.546914;-2.201175;-2.877756;1.020106;2.61911;-19.5896;64.9447;-122.564;0.0;-9.3475;-4.3549;-71.2296;15.5766;77.0444;157.7702;0.0;72.73561;12.847223;77.66102;;NaN;;926.0;;0 / 0;3066;2017-10-03 21:16:57:940
-0.587661;-6.176976;1.72689;0.426204;-9.546914;-2.201175;-2.877756;1.020106;2.61911;-19.5896;64.9447;-122.564;0.0;-9.3475;-4.3549;-71.2296;15.5766;77.0444;157.7702;0.0;72.73561;12.847223;77.66102;;NaN;;926.0;;0 / 0;3076;2017-10-03 21:16:57:950
-0.587661;-6.176976;1.72689;0.426204;-9.546914;-2.201175;-2.877756;1.020106;2.61911;-19.5896;64.9447;-122.564;0.0;-9.3475;-4.3549;-71.2296;15.5766;77.0444;157.7702;0.0;62.05719;12.847223;77.66102;;NaN;;926.0;;0 / 0;3086;2017-10-03 21:16:57:960
-1.081786;-2.870107;1.784324;1.086996;-9.355454;-2.732089;-3.451516;7.065034;4.369549;-52.6998;-74.0117;-94.424;0.0;-12.3718;0.0595;-70.1355;327.3634;72.5523;-158.3043;0.0;62.05719;12.847223;77.66102;;NaN;;926.0;;0 / 0;3096;2017-10-03 21:16:57:970
-1.081786;-2.870107;1.784324;1.086996;-9.355454;-2.732089;-3.451516;7.065034;4.369549;-52.6998;-74.0117;-94.424;0.0;-12.3718;0.0595;-70.1355;327.3634;72.5523;-158.3043;0.0;62.05719;12.847223;77.66102;;NaN;;926.0;;0 / 0;3106;2017-10-03 21:16:57:980
-1.081786;-2.870107;1.784324;1.086996;-9.355454;-2.732089;-3.451516;7.065034;4.369549;-52.6998;-74.0117;-94.424;0.0;-12.3718;0.0595;-70.1355;327.3634;72.5523;-158.3043;0.0;62.05719;12.847223;77.66102;;NaN;;926.0;;0 / 0;3116;2017-10-03 21:16:57:990
-2.181289;-1.412877;1.762778;1.086996;-9.355454;-2.732089;-3.451516;7.065034;4.369549;-52.6998;-74.0117;-94.424;0.0;-12.3718;0.0595;-70.1355;327.3634;72.5523;-158.3043;0.0;62.05719;12.847223;77.66102;;NaN;;926.0;;0 / 0;3127;2017-10-03 21:16:58:001
-2.181289;-1.412877;1.762778;1.086996;-9.355454;-2.732089;-3.451516;7.065034;4.369549;-52.6998;-74.0117;-94.424;0.0;-12.3718;0.0595;-70.1355;327.3634;72.5523;-158.3043;0.0;62.05719;12.847223;77.66102;;NaN;;926.0;;0 / 0;3136;2017-10-03 21:16:58:010
-2.181289;-1.412877;1.762778;1.086996;-9.355454;-2.732089;-3.092358;6.690398;5.142927;-74.3824;-145.1331;-17.3419;0.0;-12.3718;0.0595;-70.1355;327.3634;72.5523;-158.3043;0.0;62.05719;12.847223;77.66102;;NaN;;926.0;;0 / 0;3146;2017-10-03 21:16:58:020
-2.181289;-1.412877;1.762778;0.751202;-9.119958;-3.525967;-3.092358;6.690398;5.142927;-74.3824;-145.1331;-17.3419;0.0;-13.9572;0.5844;-68.6645;335.0791;68.4312;-167.973;0.0;62.05719;12.847223;77.66102;;NaN;;926.0;;0 / 0;3157;2017-10-03 21:16:58:031
-1.63214;-1.678472;3.234367;0.751202;-9.119958;-3.525967;-3.092358;6.690398;5.142927;-74.3824;-145.1331;-17.3419;0.0;-13.9572;0.5844;-68.6645;335.0791;68.4312;-167.973;0.0;62.05719;12.847223;77.66102;;NaN;;926.0;;0 / 0;3167;2017-10-03 21:16:58:041
-1.63214;-1.678472;3.234367;0.751202;-9.119958;-3.525967;-3.092358;6.690398;5.142927;-74.3824;-145.1331;-17.3419;0.0;-13.9572;0.5844;-68.6645;335.0791;68.4312;-167.973;0.0;62.05719;12.847223;77.66102;;NaN;;926.0;;0 / 0;3177;2017-10-03 21:16:58:051
-1.63214;-1.678472;3.234367;0.751202;-9.119958;-3.525967;-3.092358;6.690398;5.142927;-74.3824;-145.1331;-17.3419;0.0;-13.9572;0.5844;-68.6645;335.0791;68.4312;-167.973;0.0;62.05719;12.847223;77.66102;;NaN;;926.0;;0 / 0;3187;2017-10-03 21:16:58:061
-1.63214;-1.678472;3.234367;0.751202;-9.119958;-3.525967;-3.092358;6.690398;5.142927;-74.3824;-145.1331;-17.3419;0.0;-13.9572;0.5844;-68.6645;335.0791;68.4312;-167.973;0.0;62.05719;12.847223;77.66102;;NaN;;926.0;;0 / 0;3197;2017-10-03 21:16:58:071
0.201966;-6.711781;-2.293054;-0.058217;-9.293898;-3.12897;-3.285093;10.208992;5.028707;45.5168;-99.3645;45.2738;0.0;-13.9572;0.5844;-68.6645;335.0791;68.4312;-167.973;0.0;62.05719;12.847223;77.66102;;NaN;;926.0;;0 / 0;3207;2017-10-03 21:16:58:081
0.201966;-6.711781;-2.293054;-0.058217;-9.293898;-3.12897;-3.285093;10.208992;5.028707;45.5168;-99.3645;45.2738;0.0;-13.9572;0.5844;-68.6645;335.0791;68.4312;-167.973;0.0;62.05719;12.847223;77.66102;;NaN;;926.0;;0 / 0;3216;2017-10-03 21:16:58:090
0.201966;-6.711781;-2.293054;-0.058217;-9.293898;-3.12897;-3.285093;10.208992;5.028707;45.5168;-99.3645;45.2738;0.0;-15.3213;0.5981;-67.8085;348.0737;71.3902;178.9341;0.0;62.05719;12.847223;77.66102;;NaN;;926.0;;0 / 0;3226;2017-10-03 21:16:58:100
0.201966;-6.711781;-2.293054;-0.058217;-9.293898;-3.12897;-3.285093;10.208992;5.028707;45.5168;-99.3645;45.2738;0.0;-15.3213;0.5981;-67.8085;348.0737;71.3902;178.9341;0.0;62.05719;12.847223;77.66102;;NaN;;926.0;;0 / 0;3238;2017-10-03 21:16:58:112
9.97545;-40.622868;-27.219093;-0.058217;-9.293898;-3.12897;-3.285093;10.208992;5.028707;45.5168;-99.3645;45.2738;0.0;-15.3213;0.5981;-67.8085;348.0737;71.3902;178.9341;0.0;62.05719;12.847223;77.66102;;NaN;;926.0;;0 / 0;3246;2017-10-03 21:16:58:120
9.97545;-40.622868;-27.219093;-0.058217;-9.293898;-3.12897;-3.285093;10.208992;5.028707;45.5168;-99.3645;45.2738;0.0;-15.3213;0.5981;-67.8085;348.0737;71.3902;178.9341;0.0;62.05719;12.847223;77.66102;;NaN;;926.0;;0 / 0;3256;2017-10-03 21:16:58:130
9.97545;-40.622868;-27.219093;-0.751927;-9.380042;-2.760401;-1.415685;3.61049;-2.493092;44.7003;-32.1406;61.5893;0.0;-15.3213;0.5981;-67.8085;348.0737;71.3902;178.9341;0.0;62.05719;12.847223;77.66102;;NaN;;926.0;;0 / 0;3267;2017-10-03 21:16:58:141
8.259797;-16.892048;-9.534936;-0.751927;-9.380042;-2.760401;-1.415685;3.61049;-2.493092;44.7003;-32.1406;61.5893;0.0;-15.3213;0.5981;-67.8085;348.0737;71.3902;178.9341;0.0;62.05719;12.847223;77.66102;;NaN;;926.0;;0 / 0;3276;2017-10-03 21:16:58:150
8.259797;-16.892048;-9.534936;-0.751927;-9.380042;-2.760401;-1.415685;3.61049;-2.493092;44.7003;-32.1406;61.5893;0.0;-15.3213;0.5981;-67.8085;348.0737;71.3902;178.9341;0.0;62.05719;12.847223;77.66102;;NaN;;926.0;;0 / 0;3286;2017-10-03 21:16:58:160
8.259797;-16.892048;-9.534936;-0.751927;-9.380042;-2.760401;-1.415685;3.61049;-2.493092;44.7003;-32.1406;61.5893;0.0;-18.0206;0.9872;-66.098;359.9817;73.0379;164.7625;0.0;62.05719;12.847223;77.66102;;NaN;;926.0;;0 / 0;3296;2017-10-03 21:16:58:170
8.259797;-16.892048;-9.534936;-0.751927;-9.380042;-2.760401;-1.415685;3.61049;-2.493092;44.7003;-32.1406;61.5893;0.0;-18.0206;0.9872;-66.098;359.9817;73.0379;164.7625;0.0;62.05719;12.847223;77.66102;;NaN;;926.0;;0 / 0;3306;2017-10-03 21:16:58:180
-0.718078;-1.97997;11.543448;0.932137;-9.297846;-2.975155;6.982901;-16.552155;-9.760282;-16.3225;48.7044;-156.398;0.0;-18.0206;0.9872;-66.098;359.9817;73.0379;164.7625;0.0;62.05719;12.847223;77.66102;;NaN;;926.0;;0 / 0;3316;2017-10-03 21:16:58:190
-0.718078;-1.97997;11.543448;0.932137;-9.297846;-2.975155;6.982901;-16.552155;-9.760282;-16.3225;48.7044;-156.398;0.0;-18.0206;0.9872;-66.098;359.9817;73.0379;164.7625;0.0;62.05719;12.847223;77.66102;;NaN;;926.0;;0 / 0;3327;2017-10-03 21:16:58:201
-0.718078;-1.97997;11.543448;0.932137;-9.297846;-2.975155;6.982901;-16.552155;-9.760282;-16.3225;48.7044;-156.398;0.0;-18.0206;0.9872;-66.098;359.9817;73.0379;164.7625;0.0;62.05719;12.847223;77.66102;;NaN;;926.0;;0 / 0;3337;2017-10-03 21:16:58:211
-0.718078;-1.97997;11.543448;0.932137;-9.297846;-2.975155;6.982901;-16.552155;-9.760282;-16.3225;48.7044;-156.398;0.0;-18.0206;0.9872;-66.098;359.9817;73.0379;164.7625;0.0;62.05719;12.847223;77.66102;;NaN;;926.0;;0 / 0;3347;2017-10-03 21:16:58:221
-13.86305;-24.003513;-25.47831;0.932137;-9.297846;-2.975155;6.982901;-16.552155;-9.760282;-16.3225;48.7044;-156.398;0.0;-20.6894;0.9674;-65.0421;323.4122;71.4626;-162.6039;0.0;62.05719;12.847223;77.66102;;NaN;;926.0;;0 / 0;3356;2017-10-03 21:16:58:230
-13.86305;-24.003513;-25.47831;0.932137;-9.297846;-2.975155;6.982901;-16.552155;-9.760282;-16.3225;48.7044;-156.398;0.0;-20.6894;0.9674;-65.0421;323.4122;71.4626;-162.6039;0.0;62.05719;12.847223;77.66102;;NaN;;926.0;;0 / 0;3366;2017-10-03 21:16:58:240
-13.86305;-24.003513;-25.47831;1.039918;-9.26609;-3.037847;-8.605142;0.149551;0.722989;-20.7743;105.5097;7.6542;0.0;-20.6894;0.9674;-65.0421;323.4122;71.4626;-162.6039;0.0;62.05719;12.847223;77.66102;;NaN;;926.0;;0 / 0;3376;2017-10-03 21:16:58:250
-13.86305;-24.003513;-25.47831;1.039918;-9.26609;-3.037847;-8.605142;0.149551;0.722989;-20.7743;105.5097;7.6542;0.0;-20.6894;0.9674;-65.0421;323.4122;71.4626;-162.6039;0.0;62.05719;12.847223;77.66102;;NaN;;926.0;;0 / 0;3386;2017-10-03 21:16:58:260
-2.585677;-7.050359;15.33248;1.039918;-9.26609;-3.037847;-8.605142;0.149551;0.722989;-20.7743;105.5097;7.6542;0.0;-20.6894;0.9674;-65.0421;323.4122;71.4626;-162.6039;0.0;62.05719;12.847223;77.66102;;NaN;;926.0;;0 / 0;3396;2017-10-03 21:16:58:270
-2.585677;-7.050359;15.33248;1.039918;-9.26609;-3.037847;-8.605142;0.149551;0.722989;-20.7743;105.5097;7.6542;0.0;-20.6894;0.9674;-65.0421;323.4122;71.4626;-162.6039;0.0;70.56761;12.847223;77.66102;;NaN;;926.0;;0 / 0;3406;2017-10-03 21:16:58:280
-2.585677;-7.050359;15.33248;1.039918;-9.26609;-3.037847;-8.605142;0.149551;0.722989;-20.7743;105.5097;7.6542;0.0;-20.6894;0.9674;-65.0421;323.4122;71.4626;-162.6039;0.0;70.56761;12.847223;77.66102;;NaN;;926.0;;0 / 0;3417;2017-10-03 21:16:58:291
-2.585677;-7.050359;15.33248;1.039918;-9.26609;-3.037847;-8.605142;0.149551;0.722989;-20.7743;105.5097;7.6542;0.0;-20.5109;0.9064;-65.6448;322.0592;70.8876;-161.1029;0.0;70.56761;12.847223;77.66102;;NaN;;926.0;;0 / 0;3427;2017-10-03 21:16:58:301
-5.861449;-8.009877;8.765372;0.776953;-9.425226;-2.594578;-5.173178;1.840643;10.649412;33.9722;-25.6885;12.3096;0.0;-20.5109;0.9064;-65.6448;322.0592;70.8876;-161.1029;0.0;70.56761;12.847223;77.66102;;NaN;;926.0;;0 / 0;3437;2017-10-03 21:16:58:311
-5.861449;-8.009877;8.765372;0.776953;-9.425226;-2.594578;-5.173178;1.840643;10.649412;33.9722;-25.6885;12.3096;0.0;-20.5109;0.9064;-65.6448;322.0592;70.8876;-161.1029;0.0;70.56761;12.847223;77.66102;;NaN;;926.0;;0 / 0;3446;2017-10-03 21:16:58:320
-5.861449;-8.009877;8.765372;0.776953;-9.425226;-2.594578;-5.173178;1.840643;10.649412;33.9722;-25.6885;12.3096;0.0;-20.5109;0.9064;-65.6448;322.0592;70.8876;-161.1029;0.0;70.56761;12.847223;77.66102;;NaN;;926.0;;0 / 0;3457;2017-10-03 21:16:58:331
-4.544204;-17.37061;2.950812;0.776953;-9.425226;-2.594578;-5.173178;1.840643;10.649412;33.9722;-25.6885;12.3096;0.0;-20.5109;0.9064;-65.6448;322.0592;70.8876;-161.1029;0.0;70.56761;12.847223;77.66102;;NaN;;926.0;;0 / 0;3466;2017-10-03 21:16:58:340
-4.544204;-17.37061;2.950812;0.776953;-9.425226;-2.594578;-5.173178;1.840643;10.649412;33.9722;-25.6885;12.3096;0.0;-20.5109;0.9064;-65.6448;322.0592;70.8876;-161.1029;0.0;70.56761;12.847223;77.66102;;NaN;;926.0;;0 / 0;3476;2017-10-03 21:16:58:350
-4.544204;-17.37061;2.950812;-0.088953;-9.760508;-0.946005;-4.289019;2.133426;8.960402;156.0885;35.0659;89.2982;0.0;-20.5109;0.9064;-65.6448;322.0592;70.8876;-161.1029;0.0;70.56761;12.847223;77.66102;;NaN;;926.0;;0 / 0;3486;2017-10-03 21:16:58:360
-4.544204;-17.37061;2.950812;-0.088953;-9.760508;-0.946005;-4.289019;2.133426;8.960402;156.0885;35.0659;89.2982;0.0;-19.5251;0.4639;-65.9225;348.4605;84.4398;174.6283;0.0;70.56761;12.847223;77.66102;;NaN;;926.0;;0 / 0;3496;2017-10-03 21:16:58:370
3.311432;-13.575582;-2.007104;-0.088953;-9.760508;-0.946005;-4.289019;2.133426;8.960402;156.0885;35.0659;89.2982;0.0;-19.5251;0.4639;-65.9225;348.4605;84.4398;174.6283;0.0;70.56761;12.847223;77.66102;;NaN;;926.0;;0 / 0;3506;2017-10-03 21:16:58:380
3.311432;-13.575582;-2.007104;-0.088953;-9.760508;-0.946005;-4.289019;2.133426;8.960402;156.0885;35.0659;89.2982;0.0;-19.5251;0.4639;-65.9225;348.4605;84.4398;174.6283;0.0;70.56761;12.847223;77.66102;;NaN;;926.0;;0 / 0;3516;2017-10-03 21:16:58:390
3.311432;-13.575582;-2.007104;-0.088953;-9.760508;-0.946005;-4.289019;2.133426;8.960402;156.0885;35.0659;89.2982;0.0;-19.5251;0.4639;-65.9225;348.4605;84.4398;174.6283;0.0;70.56761;12.847223;77.66102;;NaN;;926.0;;0 / 0;3526;2017-10-03 21:16:58:400
3.311432;-13.575582;-2.007104;-0.088953;-9.760508;-0.946005;-4.289019;2.133426;8.960402;156.0885;35.0659;89.2982;0.0;-19.5251;0.4639;-65.9225;348.4605;84.4398;174.6283;0.0;70.56761;12.847223;77.66102;;NaN;;926.0;;0 / 0;3536;2017-10-03 21:16:58:410
1.050217;-10.975788;-0.710198;-0.71126;-9.779552;-0.157585;-3.88647;-2.856008;3.331219;81.304;142.7796;64.3896;0.0;-19.5251;0.4639;-65.9225;348.4605;84.4398;174.6283;0.0;70.56761;12.847223;77.66102;;NaN;;926.0;;0 / 0;3546;2017-10-03 21:16:58:420
1.050217;-10.975788;-0.710198;-0.71126;-9.779552;-0.157585;-3.88647;-2.856008;3.331219;81.304;142.7796;64.3896;0.0;-19.5251;0.4639;-65.9225;348.4605;84.4398;174.6283;0.0;70.56761;12.847223;77.66102;;NaN;;926.0;;0 / 0;3556;2017-10-03 21:16:58:430
1.050217;-10.975788;-0.710198;-0.71126;-9.779552;-0.157585;-3.88647;-2.856008;3.331219;81.304;142.7796;64.3896;0.0;-18.2068;0.0885;-66.6595;62.5346;85.7398;102.4925;0.0;70.56761;12.847223;77.66102;;NaN;;926.0;;0 / 0;3566;2017-10-03 21:16:58:440
1.050217;-10.975788;-0.710198;-0.71126;-9.779552;-0.157585;-3.88647;-2.856008;3.331219;81.304;142.7796;64.3896;0.0;-18.2068;0.0885;-66.6595;62.5346;85.7398;102.4925;0.0;70.56761;12.847223;77.66102;;NaN;;926.0;;0 / 0;3576;2017-10-03 21:16:58:450
3.204957;-7.737096;-0.770013;-0.71126;-9.779552;-0.157585;-3.88647;-2.856008;3.331219;81.304;142.7796;64.3896;0.0;-18.2068;0.0885;-66.6595;62.5346;85.7398;102.4925;0.0;70.56761;12.847223;77.66102;;NaN;;926.0;;0 / 0;3586;2017-10-03 21:16:58:460
3.204957;-7.737096;-0.770013;-0.71126;-9.779552;-0.157585;-3.88647;-2.856008;3.331219;81.304;142.7796;64.3896;0.0;-18.2068;0.0885;-66.6595;62.5346;85.7398;102.4925;0.0;70.56761;12.847223;77.66102;;NaN;;926.0;;0 / 0;3596;2017-10-03 21:16:58:470
3.204957;-7.737096;-0.770013;-1.683675;-9.640262;0.633222;2.335786;0.59545;-2.00743;74.6718;-70.3721;107.5214;0.0;-18.2068;0.0885;-66.6595;62.5346;85.7398;102.4925;0.0;70.56761;12.847223;77.66102;;NaN;;926.0;;0 / 0;3606;2017-10-03 21:16:58:480
3.397584;-10.594136;2.048728;-1.683675;-9.640262;0.633222;2.335786;0.59545;-2.00743;74.6718;-70.3721;107.5214;0.0;-18.2068;0.0885;-66.6595;62.5346;85.7398;102.4925;0.0;70.56761;12.847223;77.66102;;NaN;;926.0;;0 / 0;3616;2017-10-03 21:16:58:490
3.397584;-10.594136;2.048728;-1.683675;-9.640262;0.633222;2.335786;0.59545;-2.00743;74.6718;-70.3721;107.5214;0.0;-16.037;-1.9547;-68.8156;97.7232;79.4305;69.389;0.0;70.56761;12.847223;77.66102;;NaN;;926.0;;0 / 0;3626;2017-10-03 21:16:58:500
3.397584;-10.594136;2.048728;-1.683675;-9.640262;0.633222;2.335786;0.59545;-2.00743;74.6718;-70.3721;107.5214;0.0;-16.037;-1.9547;-68.8156;97.7232;79.4305;69.389;0.0;70.56761;12.847223;77.66102;;NaN;;926.0;;0 / 0;3637;2017-10-03 21:16:58:511
3.397584;-10.594136;2.048728;-1.683675;-9.640262;0.633222;2.335786;0.59545;-2.00743;74.6718;-70.3721;107.5214;0.0;-16.037;-1.9547;-68.8156;97.7232;79.4305;69.389;0.0;70.56761;12.847223;77.66102;;NaN;;926.0;;0 / 0;3646;2017-10-03 21:16:58:520
2.926194;-9.302006;5.733665;-2.253699;-9.471068;1.179009;4.133681;2.800632;-0.716562;55.1294;-15.2647;67.0963;0.0;-16.037;-1.9547;-68.8156;97.7232;79.4305;69.389;0.0;70.56761;12.847223;77.66102;;NaN;;926.0;;0 / 0;3657;2017-10-03 21:16:58:531
2.926194;-9.302006;5.733665;-2.253699;-9.471068;1.179009;4.133681;2.800632;-0.716562;55.1294;-15.2647;67.0963;0.0;-16.037;-1.9547;-68.8156;97.7232;79.4305;69.389;0.0;70.56761;12.847223;77.66102;;NaN;;926.0;;0 / 0;3666;2017-10-03 21:16:58:540
2.926194;-9.302006;5.733665;-2.253699;-9.471068;1.179009;4.133681;2.800632;-0.716562;55.1294;-15.2647;67.0963;0.0;-16.037;-1.9547;-68.8156;97.7232;79.4305;69.389;0.0;70.56761;12.847223;77.66102;;NaN;;926.0;;0 / 0;3676;2017-10-03 21:16:58:550
2.926194;-9.302006;5.733665;-2.253699;-9.471068;1.179009;4.133681;2.800632;-0.716562;55.1294;-15.2647;67.0963;0.0;-16.037;-1.9547;-68.8156;97.7232;79.4305;69.389;0.0;70.56761;12.847223;77.66102;;NaN;;926.0;;0 / 0;3686;2017-10-03 21:16:58:560
0.925797;-11.361028;2.605064;-2.253699;-9.471068;1.179009;4.133681;2.800632;-0.716562;55.1294;-15.2647;67.0963;0.0;-13.0554;-4.5059;-69.7205;107.5408;74.9678;62.384;0.0;70.56761;12.847223;77.66102;;NaN;;926.0;;0 / 0;3697;2017-10-03 21:16:58:571
0.925797;-11.361028;2.605064;-2.253699;-9.471068;1.179009;4.133681;2.800632;-0.716562;55.1294;-15.2647;67.0963;0.0;-13.0554;-4.5059;-69.7205;107.5408;74.9678;62.384;0.0;70.56761;12.847223;77.66102;;NaN;;926.0;;0 / 0;3707;2017-10-03 21:16:58:581
0.925797;-11.361028;2.605064;-2.723025;-9.228546;1.894589;3.564553;1.726268;1.923258;107.8108;127.939;34.0675;0.0;-13.0554;-4.5059;-69.7205;107.5408;74.9678;62.384;0.0;70.56761;12.847223;77.66102;;NaN;;926.0;;0 / 0;3716;2017-10-03 21:16:58:590
0.925797;-11.361028;2.605064;-2.723025;-9.228546;1.894589;3.564553;1.726268;1.923258;107.8108;127.939;34.0675;0.0;-13.0554;-4.5059;-69.7205;107.5408;74.9678;62.384;0.0;70.56761;12.847223;77.66102;;NaN;;926.0;;0 / 0;3726;2017-10-03 21:16:58:600
2.667771;-15.717168;-9.689262;-2.723025;-9.228546;1.894589;3.564553;1.726268;1.923258;107.8108;127.939;34.0675;0.0;-13.0554;-4.5059;-69.7205;107.5408;74.9678;62.384;0.0;60.78316;12.847223;77.66102;;NaN;;926.0;;0 / 0;3736;2017-10-03 21:16:58:610
2.667771;-15.717168;-9.689262;-2.723025;-9.228546;1.894589;3.564553;1.726268;1.923258;107.8108;127.939;34.0675;0.0;-13.0554;-4.5059;-69.7205;107.5408;74.9678;62.384;0.0;60.78316;12.847223;77.66102;;NaN;;926.0;;0 / 0;3747;2017-10-03 21:16:58:621
2.667771;-15.717168;-9.689262;-2.723025;-9.228546;1.894589;3.564553;1.726268;1.923258;107.8108;127.939;34.0675;0.0;-13.0554;-4.5059;-69.7205;107.5408;74.9678;62.384;0.0;60.78316;12.847223;77.66102;;NaN;;926.0;;0 / 0;3756;2017-10-03 21:16:58:630
2.667771;-15.717168;-9.689262;-2.723025;-9.228546;1.894589;3.564553;1.726268;1.923258;107.8108;127.939;34.0675;0.0;-9.3338;-9.0591;-71.2677;118.372;70.2286;55.1711;0.0;60.78316;12.847223;77.66102;;NaN;;926.0;;0 / 0;3766;2017-10-03 21:16:58:640
7.325394;-15.300816;5.482429;-3.095751;-9.075466;2.054904;4.43717;-3.561471;-6.451489;47.226;54.7482;37.5444;0.0;-9.3338;-9.0591;-71.2677;118.372;70.2286;55.1711;0.0;60.78316;12.847223;77.66102;;NaN;;926.0;;0 / 0;3777;2017-10-03 21:16:58:651
7.325394;-15.300816;5.482429;-3.095751;-9.075466;2.054904;4.43717;-3.561471;-6.451489;47.226;54.7482;37.5444;0.0;-9.3338;-9.0591;-71.2677;118.372;70.2286;55.1711;0.0;60.78316;12.847223;77.66102;;NaN;;926.0;;0 / 0;3786;2017-10-03 21:16:58:660
7.325394;-15.300816;5.482429;-3.095751;-9.075466;2.054904;4.43717;-3.561471;-6.451489;47.226;54.7482;37.5444;0.0;-9.3338;-9.0591;-71.2677;118.372;70.2286;55.1711;0.0;60.78316;12.847223;77.66102;;NaN;;926.0;;0 / 0;3797;2017-10-03 21:16:58:671
5.226884;-15.281666;-3.496636;-3.095751;-9.075466;2.054904;4.43717;-3.561471;-6.451489;47.226;54.7482;37.5444;0.0;-9.3338;-9.0591;-71.2677;118.372;70.2286;55.1711;0.0;60.78316;12.847223;77.66102;;NaN;;926.0;;0 / 0;3806;2017-10-03 21:16:58:680
5.226884;-15.281666;-3.496636;-3.095751;-9.075466;2.054904;4.43717;-3.561471;-6.451489;47.226;54.7482;37.5444;0.0;-9.3338;-9.0591;-71.2677;118.372;70.2286;55.1711;0.0;60.78316;12.847223;77.66102;;NaN;;926.0;;0 / 0;3817;2017-10-03 21:16:58:691
5.226884;-15.281666;-3.496636;-2.953089;-9.143178;1.96264;7.402099;-3.538191;-2.258129;3.8022;27.9546;-8.0904;0.0;-5.6976;-12.2818;-71.08;120.1808;68.8033;56.3918;0.0;60.78316;12.847223;77.66102;;NaN;;926.0;;0 / 0;3827;2017-10-03 21:16:58:701
5.226884;-15.281666;-3.496636;-2.953089;-9.143178;1.96264;7.402099;-3.538191;-2.258129;3.8022;27.9546;-8.0904;0.0;-5.6976;-12.2818;-71.08;120.1808;68.8033;56.3918;0.0;60.78316;12.847223;77.66102;;NaN;;926.0;;0 / 0;3836;2017-10-03 21:16:58:710
4.236268;-15.302006;-2.310998;-2.953089;-9.143178;1.96264;7.402099;-3.538191;-2.258129;3.8022;27.9546;-8.0904;0.0;-5.6976;-12.2818;-71.08;120.1808;68.8033;56.3918;0.0;60.78316;12.847223;77.66102;;NaN;;926.0;;0 / 0;3846;2017-10-03 21:16:58:720
4.236268;-15.302006;-2.310998;-2.953089;-9.143178;1.96264;7.402099;-3.538191;-2.258129;3.8022;27.9546;-8.0904;0.0;-5.6976;-12.2818;-71.08;120.1808;68.8033;56.3918;0.0;60.78316;12.847223;77.66102;;NaN;;926.0;;0 / 0;3856;2017-10-03 21:16:58:730
4.236268;-15.302006;-2.310998;-2.953089;-9.143178;1.96264;7.402099;-3.538191;-2.258129;3.8022;27.9546;-8.0904;0.0;-5.6976;-12.2818;-71.08;120.1808;68.8033;56.3918;0.0;60.78316;12.847223;77.66102;;NaN;;926.0;;0 / 0;3867;2017-10-03 21:16:58:741
4.236268;-15.302006;-2.310998;-2.953089;-9.143178;1.96264;7.402099;-3.538191;-2.258129;3.8022;27.9546;-8.0904;0.0;-5.6976;-12.2818;-71.08;120.1808;68.8033;56.3918;0.0;60.78316;12.847223;77.66102;;NaN;;926.0;;0 / 0;3877;2017-10-03 21:16:58:751
6.533372;-15.887058;-0.79754;-2.503254;-9.405858;1.197467;6.951904;-3.254298;-1.486429;-73.5134;22.3086;-39.7948;0.0;-5.6976;-12.2818;-71.08;120.1808;68.8033;56.3918;0.0;60.78316;12.847223;77.66102;;NaN;;926.0;;0 / 0;3886;2017-10-03 21:16:58:760
6.533372;-15.887058;-0.79754;-2.503254;-9.405858;1.197467;6.951904;-3.254298;-1.486429;-73.5134;22.3086;-39.7948;0.0;-4.5914;-11.3693;-71.6446;113.073;73.5628;64.4352;0.0;60.78316;12.847223;77.66102;;NaN;;926.0;;0 / 0;3896;2017-10-03 21:16:58:770
6.533372;-15.887058;-0.79754;-2.503254;-9.405858;1.197467;6.951904;-3.254298;-1.486429;-73.5134;22.3086;-39.7948;0.0;-4.5914;-11.3693;-71.6446;113.073;73.5628;64.4352;0.0;60.78316;12.847223;77.66102;;NaN;;926.0;;0 / 0;3907;2017-10-03 21:16:58:781
6.533372;-15.887058;-0.79754;-2.503254;-9.405858;1.197467;6.951904;-3.254298;-1.486429;-73.5134;22.3086;-39.7948;0.0;-4.5914;-11.3693;-71.6446;113.073;73.5628;64.4352;0.0;60.78316;12.847223;77.66102;;NaN;;926.0;;0 / 0;3917;2017-10-03 21:16:58:791
2.105454;-18.818256;-1.161248;-2.503254;-9.405858;1.197467;6.951904;-3.254298;-1.486429;-73.5134;22.3086;-39.7948;0.0;-4.5914;-11.3693;-71.6446;113.073;73.5628;64.4352;0.0;60.78316;12.847223;77.66102;;NaN;;926.0;;0 / 0;3927;2017-10-03 21:16:58:801
2.105454;-18.818256;-1.161248;-2.503254;-9.405858;1.197467;6.951904;-3.254298;-1.486429;-73.5134;22.3086;-39.7948;0.0;-4.5914;-11.3693;-71.6446;113.073;73.5628;64.4352;0.0;60.78316;12.847223;77.66102;;NaN;;926.0;;0 / 0;3937;2017-10-03 21:16:58:811
2.105454;-18.818256;-1.161248;-1.085104;-9.739578;-0.365452;5.370673;-4.158372;-1.657076;-172.1094;-63.7513;-135.6019;0.0;-4.5914;-11.3693;-71.6446;113.073;73.5628;64.4352;0.0;60.78316;12.847223;77.66102;;NaN;;926.0;;0 / 0;3947;2017-10-03 21:16:58:821
2.105454;-18.818256;-1.161248;-1.085104;-9.739578;-0.365452;5.370673;-4.158372;-1.657076;-172.1094;-63.7513;-135.6019;0.0;-4.5914;-11.3693;-71.6446;113.073;73.5628;64.4352;0.0;60.78316;12.847223;77.66102;;NaN;;926.0;;0 / 0;3956;2017-10-03 21:16:58:830
-8.194457;-22.003117;9.936668;-1.085104;-9.739578;-0.365452;5.370673;-4.158372;-1.657076;-172.1094;-63.7513;-135.6019;0.0;-6.0608;-9.0424;-71.9849;67.5372;83.2951;108.613;0.0;60.78316;12.847223;77.66102;;NaN;;926.0;;0 / 0;3967;2017-10-03 21:16:58:841
-8.194457;-22.003117;9.936668;-1.085104;-9.739578;-0.365452;5.370673;-4.158372;-1.657076;-172.1094;-63.7513;-135.6019;0.0;-6.0608;-9.0424;-71.9849;67.5372;83.2951;108.613;0.0;60.78316;12.847223;77.66102;;NaN;;926.0;;0 / 0;3977;2017-10-03 21:16:58:851
-8.194457;-22.003117;9.936668;-1.085104;-9.739578;-0.365452;5.370673;-4.158372;-1.657076;-172.1094;-63.7513;-135.6019;0.0;-6.0608;-9.0424;-71.9849;67.5372;83.2951;108.613;0.0;60.78316;12.847223;77.66102;;NaN;;926.0;;0 / 0;3986;2017-10-03 21:16:58:860
-10.229552;-18.349262;3.112342;-0.762442;-9.662466;-1.491922;-2.025611;-7.045033;4.373053;-136.5435;-133.0814;-50.3419;0.0;-6.0608;-9.0424;-71.9849;67.5372;83.2951;108.613;0.0;60.78316;12.847223;77.66102;;NaN;;926.0;;0 / 0;3996;2017-10-03 21:16:58:870
-10.229552;-18.349262;3.112342;-0.762442;-9.662466;-1.491922;-2.025611;-7.045033;4.373053;-136.5435;-133.0814;-50.3419;0.0;-6.0608;-9.0424;-71.9849;67.5372;83.2951;108.613;0.0;60.78316;12.847223;77.66102;;NaN;;926.0;;0 / 0;4007;2017-10-03 21:16:58:881
-10.229552;-18.349262;3.112342;-0.762442;-9.662466;-1.491922;-2.025611;-7.045033;4.373053;-136.5435;-133.0814;-50.3419;0.0;-6.0608;-9.0424;-71.9849;67.5372;83.2951;108.613;0.0;60.78316;12.847223;77.66102;;NaN;;926.0;;0 / 0;4016;2017-10-03 21:16:58:890
-10.229552;-18.349262;3.112342;-0.762442;-9.662466;-1.491922;-2.025611;-7.045033;4.373053;-136.5435;-133.0814;-50.3419;0.0;-6.0608;-9.0424;-71.9849;67.5372;83.2951;108.613;0.0;60.78316;12.847223;77.66102;;NaN;;926.0;;0 / 0;4027;2017-10-03 21:16:58:901
-3.128845;-12.433018;-1.258157;-0.762442;-9.662466;-1.491922;-2.025611;-7.045033;4.373053;-136.5435;-133.0814;-50.3419;0.0;-6.0516;-2.8931;-71.08;22.6987;80.1628;152.9308;0.0;60.78316;12.847223;77.66102;;NaN;;926.0;;0 / 0;4036;2017-10-03 21:16:58:910
-3.128845;-12.433018;-1.258157;-0.762442;-9.662466;-1.491922;-2.025611;-7.045033;4.373053;-136.5435;-133.0814;-50.3419;0.0;-6.0516;-2.8931;-71.08;22.6987;80.1628;152.9308;0.0;60.78316;12.847223;77.66102;;NaN;;926.0;;0 / 0;4047;2017-10-03 21:16:58:921
-3.128845;-12.433018;-1.258157;-0.365549;-9.466302;-2.534931;-9.712572;-5.834478;5.123151;-113.9096;135.2548;-25.8765;0.0;-6.0516;-2.8931;-71.08;22.6987;80.1628;152.9308;0.0;63.31659;12.847223;77.66102;;NaN;;926.0;;0 / 0;4056;2017-10-03 21:16:58:930
-3.128845;-12.433018;-1.258157;-0.365549;-9.466302;-2.534931;-9.712572;-5.834478;5.123151;-113.9096;135.2548;-25.8765;0.0;-6.0516;-2.8931;-71.08;22.6987;80.1628;152.9308;0.0;63.31659;12.847223;77.66102;;NaN;;926.0;;0 / 0;4067;2017-10-03 21:16:58:941
3.817521;-10.405094;-0.268731;-0.365549;-9.466302;-2.534931;-9.712572;-5.834478;5.123151;-113.9096;135.2548;-25.8765;0.0;-6.0516;-2.8931;-71.08;22.6987;80.1628;152.9308;0.0;63.31659;12.847223;77.66102;;NaN;;926.0;;0 / 0;4077;2017-10-03 21:16:58:951
3.817521;-10.405094;-0.268731;-0.365549;-9.466302;-2.534931;-9.712572;-5.834478;5.123151;-113.9096;135.2548;-25.8765;0.0;-6.0516;-2.8931;-71.08;22.6987;80.1628;152.9308;0.0;63.31659;12.847223;77.66102;;NaN;;926.0;;0 / 0;4087;2017-10-03 21:16:58:961
3.817521;-10.405094;-0.268731;-0.365549;-9.466302;-2.534931;-9.712572;-5.834478;5.123151;-113.9096;135.2548;-25.8765;0.0;-10.0708;5.632;-68.5638;359.9589;74.8608;171.7942;0.0;63.31659;12.847223;77.66102;;NaN;;926.0;;0 / 0;4096;2017-10-03 21:16:58:970
3.817521;-10.405094;-0.268731;-0.365549;-9.466302;-2.534931;-9.712572;-5.834478;5.123151;-113.9096;135.2548;-25.8765;0.0;-10.0708;5.632;-68.5638;359.9589;74.8608;171.7942;0.0;63.31659;12.847223;77.66102;;NaN;;926.0;;0 / 0;4107;2017-10-03 21:16:58:981
1.181824;-5.940099;2.182716;1.288912;-9.449512;-2.283821;-1.402202;1.693958;3.183142;19.5346;86.3476;-154.7937;0.0;-10.0708;5.632;-68.5638;359.9589;74.8608;171.7942;0.0;63.31659;12.847223;77.66102;;NaN;;926.0;;0 / 0;4117;2017-10-03 21:16:58:991
1.181824;-5.940099;2.182716;1.288912;-9.449512;-2.283821;-1.402202;1.693958;3.183142;19.5346;86.3476;-154.7937;0.0;-10.0708;5.632;-68.5638;359.9589;74.8608;171.7942;0.0;63.31659;12.847223;77.66102;;NaN;;926.0;;0 / 0;4127;2017-10-03 21:16:59:001
1.181824;-5.940099;2.182716;1.288912;-9.449512;-2.283821;-1.402202;1.693958;3.183142;19.5346;86.3476;-154.7937;0.0;-10.0708;5.632;-68.5638;359.9589;74.8608;171.7942;0.0;63.31659;12.847223;77.66102;;NaN;;926.0;;0 / 0;4136;2017-10-03 21:16:59:010
1.181824;-5.940099;2.182716;1.288912;-9.449512;-2.283821;-1.402202;1.693958;3.183142;19.5346;86.3476;-154.7937;0.0;-10.0708;5.632;-68.5638;359.9589;74.8608;171.7942;0.0;63.31659;12.847223;77.66102;;NaN;;926.0;;0 / 0;4146;2017-10-03 21:16:59:020
0.32161;-1.575581;3.691398;1.288912;-9.449512;-2.283821;-1.402202;1.693958;3.183142;19.5346;86.3476;-154.7937;0.0;-10.0708;5.632;-68.5638;359.9589;74.8608;171.7942;0.0;63.31659;12.847223;77.66102;;NaN;;926.0;;0 / 0;4157;2017-10-03 21:16:59:031
0.32161;-1.575581;3.691398;1.873678;-9.188828;-2.867955;-2.47085;8.179679;5.637865;-39.1959;-152.1386;-106.2371;0.0;-11.9064;6.1691;-67.4942;320.2423;74.4896;-150.5611;0.0;63.31659;12.847223;77.66102;;NaN;;926.0;;0 / 0;4166;2017-10-03 21:16:59:040
0.32161;-1.575581;3.691398;1.873678;-9.188828;-2.867955;-2.47085;8.179679;5.637865;-39.1959;-152.1386;-106.2371;0.0;-11.9064;6.1691;-67.4942;320.2423;74.4896;-150.5611;0.0;63.31659;12.847223;77.66102;;NaN;;926.0;;0 / 0;4176;2017-10-03 21:16:59:050
-1.502929;1.273067;2.393287;1.873678;-9.188828;-2.867955;-2.47085;8.179679;5.637865;-39.1959;-152.1386;-106.2371;0.0;-11.9064;6.1691;-67.4942;320.2423;74.4896;-150.5611;0.0;63.31659;12.847223;77.66102;;NaN;;926.0;;0 / 0;4187;2017-10-03 21:16:59:061
-1.502929;1.273067;2.393287;1.873678;-9.188828;-2.867955;-2.47085;8.179679;5.637865;-39.1959;-152.1386;-106.2371;0.0;-11.9064;6.1691;-67.4942;320.2423;74.4896;-150.5611;0.0;63.31659;12.847223;77.66102;;NaN;;926.0;;0 / 0;4196;2017-10-03 21:16:59:070
-1.502929;1.273067;2.393287;1.873678;-9.188828;-2.867955;-2.47085;8.179679;5.637865;-39.1959;-152.1386;-106.2371;0.0;-11.9064;6.1691;-67.4942;320.2423;74.4896;-150.5611;0.0;63.31659;12.847223;77.66102;;NaN;;926.0;;0 / 0;4207;2017-10-03 21:16:59:081
-1.502929;1.273067;2.393287;1.873678;-9.188828;-2.867955;-2.47085;8.179679;5.637865;-39.1959;-152.1386;-106.2371;0.0;-11.9064;6.1691;-67.4942;320.2423;74.4896;-150.5611;0.0;63.31659;12.847223;77.66102;;NaN;;926.0;;0 / 0;4217;2017-10-03 21:16:59:091
-0.290954;1.590129;5.688209;1.153443;-9.089124;-3.49682;-3.519488;12.701088;6.695348;-44.2885;-155.0551;21.7648;0.0;-11.9064;6.1691;-67.4942;320.2423;74.4896;-150.5611;0.0;63.31659;12.847223;77.66102;;NaN;;926.0;;0 / 0;4227;2017-10-03 21:16:59:101
-0.290954;1.590129;5.688209;1.153443;-9.089124;-3.49682;-3.519488;12.701088;6.695348;-44.2885;-155.0551;21.7648;0.0;-16.2842;8.4106;-64.2868;327.2019;67.9464;-161.7446;0.0;63.31659;12.847223;77.66102;;NaN;;926.0;;0 / 0;4236;2017-10-03 21:16:59:110
-0.290954;1.590129;5.688209;1.153443;-9.089124;-3.49682;-3.519488;12.701088;6.695348;-44.2885;-155.0551;21.7648;0.0;-16.2842;8.4106;-64.2868;327.2019;67.9464;-161.7446;0.0;63.31659;12.847223;77.66102;;NaN;;926.0;;0 / 0;4247;2017-10-03 21:16:59:121
-0.290954;1.590129;5.688209;1.153443;-9.089124;-3.49682;-3.519488;12.701088;6.695348;-44.2885;-155.0551;21.7648;0.0;-16.2842;8.4106;-64.2868;327.2019;67.9464;-161.7446;0.0;63.31659;12.847223;77.66102;;NaN;;926.0;;0 / 0;4256;2017-10-03 21:16:59:130
-0.183288;-6.551457;-4.403527;1.153443;-9.089124;-3.49682;-3.519488;12.701088;6.695348;-44.2885;-155.0551;21.7648;0.0;-16.2842;8.4106;-64.2868;327.2019;67.9464;-161.7446;0.0;63.31659;12.847223;77.66102;;NaN;;926.0;;0 / 0;4267;2017-10-03 21:16:59:141
-0.183288;-6.551457;-4.403527;1.153443;-9.089124;-3.49682;-3.519488;12.701088;6.695348;-44.2885;-155.0551;21.7648;0.0;-16.2842;8.4106;-64.2868;327.2019;67.9464;-161.7446;0.0;63.31659;12.847223;77.66102;;NaN;;926.0;;0 / 0;4276;2017-10-03 21:16:59:150
-0.183288;-6.551457;-4.403527;0.136317;-9.457148;-2.591174;-2.506137;12.83946;5.733755;102.2985;-102.2688;70.5435;0.0;-16.2842;8.4106;-64.2868;327.2019;67.9464;-161.7446;0.0;63.31659;12.847223;77.66102;;NaN;;926.0;;0 / 0;4287;2017-10-03 21:16:59:161
9.754106;-41.530933;-7.002129;0.136317;-9.457148;-2.591174;-2.506137;12.83946;5.733755;102.2985;-102.2688;70.5435;0.0;-23.2849;10.199;-62.7777;337.0811;74.6573;-176.9885;0.0;63.31659;12.847223;77.66102;;NaN;;926.0;;0 / 0;4297;2017-10-03 21:16:59:171
9.754106;-41.530933;-7.002129;0.136317;-9.457148;-2.591174;-2.506137;12.83946;5.733755;102.2985;-102.2688;70.5435;0.0;-23.2849;10.199;-62.7777;337.0811;74.6573;-176.9885;0.0;63.31659;12.847223;77.66102;;NaN;;926.0;;0 / 0;4306;2017-10-03 21:16:59:180
9.754106;-41.530933;-7.002129;0.136317;-9.457148;-2.591174;-2.506137;12.83946;5.733755;102.2985;-102.2688;70.5435;0.0;-23.2849;10.199;-62.7777;337.0811;74.6573;-176.9885;0.0;63.31659;12.847223;77.66102;;NaN;;926.0;;0 / 0;4316;2017-10-03 21:16:59:190
9.754106;-41.530933;-7.002129;0.136317;-9.457148;-2.591174;-2.506137;12.83946;5.733755;102.2985;-102.2688;70.5435;0.0;-23.2849;10.199;-62.7777;337.0811;74.6573;-176.9885;0.0;63.31659;12.847223;77.66102;;NaN;;926.0;;0 / 0;4327;2017-10-03 21:16:59:201
3.636857;-9.567616;-10.557854;0.579904;-9.312614;-3.018162;-2.506137;12.83946;5.733755;102.2985;-102.2688;70.5435;0.0;-23.2849;10.199;-62.7777;337.0811;74.6573;-176.9885;0.0;63.31659;12.847223;77.66102;;NaN;;926.0;;0 / 0;4336;2017-10-03 21:16:59:210
3.636857;-9.567616;-10.557854;0.579904;-9.312614;-3.018162;0.17411;-3.665624;-8.324918;-34.3018;7.982;-45.3131;0.0;-23.2849;10.199;-62.7777;337.0811;74.6573;-176.9885;0.0;63.31659;12.847223;77.66102;;NaN;;926.0;;0 / 0;4347;2017-10-03 21:16:59:221
3.636857;-9.567616;-10.557854;0.579904;-9.312614;-3.018162;0.17411;-3.665624;-8.324918;-34.3018;7.982;-45.3131;0.0;-23.2849;10.199;-62.7777;337.0811;74.6573;-176.9885;0.0;63.31659;12.847223;77.66102;;NaN;;926.0;;0 / 0;4356;2017-10-03 21:16:59:230
3.636857;-9.567616;-10.557854;0.579904;-9.312614;-3.018162;0.17411;-3.665624;-8.324918;-34.3018;7.982;-45.3131;0.0;-24.1974;10.199;-63.0295;328.3787;71.736;-169.1238;0.0;63.31659;12.847223;77.66102;;NaN;;926.0;;0 / 0;4366;2017-10-03 21:16:59:240
0.437653;-2.55544;11.89759;0.579904;-9.312614;-3.018162;0.17411;-3.665624;-8.324918;-34.3018;7.982;-45.3131;0.0;-24.1974;10.199;-63.0295;328.3787;71.736;-169.1238;0.0;63.31659;12.847223;77.66102;;NaN;;926.0;;0 / 0;4377;2017-10-03 21:16:59:251
0.437653;-2.55544;11.89759;0.579904;-9.312614;-3.018162;0.17411;-3.665624;-8.324918;-34.3018;7.982;-45.3131;0.0;-24.1974;10.199;-63.0295;328.3787;71.736;-169.1238;0.0;72.38652;12.847223;77.66102;;NaN;;926.0;;0 / 0;4386;2017-10-03 21:16:59:260
0.437653;-2.55544;11.89759;1.679833;-9.0706;-3.327575;1.96199;-6.93724;-3.381433;-40.7879;66.1285;-96.3142;0.0;-24.1974;10.199;-63.0295;328.3787;71.736;-169.1238;0.0;72.38652;12.847223;77.66102;;NaN;;926.0;;0 / 0;4397;2017-10-03 21:16:59:271
0.437653;-2.55544;11.89759;1.679833;-9.0706;-3.327575;1.96199;-6.93724;-3.381433;-40.7879;66.1285;-96.3142;0.0;-24.1974;10.199;-63.0295;328.3787;71.736;-169.1238;0.0;72.38652;12.847223;77.66102;;NaN;;926.0;;0 / 0;4407;2017-10-03 21:16:59:281
-12.846098;-34.536716;-29.654976;1.679833;-9.0706;-3.327575;1.96199;-6.93724;-3.381433;-40.7879;66.1285;-96.3142;0.0;-24.1974;10.199;-63.0295;328.3787;71.736;-169.1238;0.0;72.38652;12.847223;77.66102;;NaN;;926.0;;0 / 0;4417;2017-10-03 21:16:59:291
-12.846098;-34.536716;-29.654976;1.679833;-9.0706;-3.327575;1.96199;-6.93724;-3.381433;-40.7879;66.1285;-96.3142;0.0;-23.6755;10.4004;-63.533;312.8578;67.6599;-153.2143;0.0;72.38652;12.847223;77.66102;;NaN;;926.0;;0 / 0;4439;2017-10-03 21:16:59:313
-12.846098;-34.536716;-29.654976;1.679833;-9.0706;-3.327575;1.96199;-6.93724;-3.381433;-40.7879;66.1285;-96.3142;0.0;-23.6755;10.4004;-63.533;312.8578;67.6599;-153.2143;0.0;72.38652;12.847223;77.66102;;NaN;;926.0;;0 / 0;4440;2017-10-03 21:16:59:314
-12.846098;-34.536716;-29.654976;1.679833;-9.0706;-3.327575;1.96199;-6.93724;-3.381433;-40.7879;66.1285;-96.3142;0.0;-23.6755;10.4004;-63.533;312.8578;67.6599;-153.2143;0.0;72.38652;12.847223;77.66102;;NaN;;926.0;;0 / 0;4446;2017-10-03 21:16:59:320
0.656602;-6.978581;14.938866;0.64476;-9.127886;-3.526522;-7.55836;-5.52295;1.618806;-33.4616;34.6104;113.1508;0.0;-23.6755;10.4004;-63.533;312.8578;67.6599;-153.2143;0.0;72.38652;12.847223;77.66102;;NaN;;926.0;;0 / 0;4457;2017-10-03 21:16:59:331
0.656602;-6.978581;14.938866;0.64476;-9.127886;-3.526522;-7.55836;-5.52295;1.618806;-33.4616;34.6104;113.1508;0.0;-23.6755;10.4004;-63.533;312.8578;67.6599;-153.2143;0.0;72.38652;12.847223;77.66102;;NaN;;926.0;;0 / 0;4466;2017-10-03 21:16:59:340
0.656602;-6.978581;14.938866;0.64476;-9.127886;-3.526522;-7.55836;-5.52295;1.618806;-33.4616;34.6104;113.1508;0.0;-23.6755;10.4004;-63.533;312.8578;67.6599;-153.2143;0.0;72.38652;12.847223;77.66102;;NaN;;926.0;;0 / 0;4477;2017-10-03 21:16:59:351
-6.310104;-6.963017;9.821816;0.64476;-9.127886;-3.526522;-7.55836;-5.52295;1.618806;-33.4616;34.6104;113.1508;0.0;-23.6755;10.4004;-63.533;312.8578;67.6599;-153.2143;0.0;72.38652;12.847223;77.66102;;NaN;;926.0;;0 / 0;4487;2017-10-03 21:16:59:361
-6.310104;-6.963017;9.821816;0.64476;-9.127886;-3.526522;-7.55836;-5.52295;1.618806;-33.4616;34.6104;113.1508;0.0;-23.6755;10.4004;-63.533;312.8578;67.6599;-153.2143;0.0;72.38652;12.847223;77.66102;;NaN;;926.0;;0 / 0;4496;2017-10-03 21:16:59:370
-6.310104;-6.963017;9.821816;0.521589;-9.543584;-2.195069;-4.130847;3.453471;13.510408;122.3944;-9.7166;4.0024;0.0;-23.9029;9.8221;-64.2868;328.9084;68.5576;-169.639;0.0;72.38652;12.847223;77.66102;;NaN;;926.0;;0 / 0;4507;2017-10-03 21:16:59:381
-6.310104;-6.963017;9.821816;0.521589;-9.543584;-2.195069;-4.130847;3.453471;13.510408;122.3944;-9.7166;4.0024;0.0;-23.9029;9.8221;-64.2868;328.9084;68.5576;-169.639;0.0;72.38652;12.847223;77.66102;;NaN;;926.0;;0 / 0;4517;2017-10-03 21:16:59:391
-2.963745;-13.927326;2.633765;0.521589;-9.543584;-2.195069;-4.130847;3.453471;13.510408;122.3944;-9.7166;4.0024;0.0;-23.9029;9.8221;-64.2868;328.9084;68.5576;-169.639;0.0;72.38652;12.847223;77.66102;;NaN;;926.0;;0 / 0;4527;2017-10-03 21:16:59:401
-2.963745;-13.927326;2.633765;0.521589;-9.543584;-2.195069;-4.130847;3.453471;13.510408;122.3944;-9.7166;4.0024;0.0;-23.9029;9.8221;-64.2868;328.9084;68.5576;-169.639;0.0;72.38652;12.847223;77.66102;;NaN;;926.0;;0 / 0;4537;2017-10-03 21:16:59:411
-2.963745;-13.927326;2.633765;0.521589;-9.543584;-2.195069;-4.130847;3.453471;13.510408;122.3944;-9.7166;4.0024;0.0;-23.9029;9.8221;-64.2868;328.9084;68.5576;-169.639;0.0;72.38652;12.847223;77.66102;;NaN;;926.0;;0 / 0;4546;2017-10-03 21:16:59:420
-2.963745;-13.927326;2.633765;0.521589;-9.543584;-2.195069;-4.130847;3.453471;13.510408;122.3944;-9.7166;4.0024;0.0;-23.9029;9.8221;-64.2868;328.9084;68.5576;-169.639;0.0;72.38652;12.847223;77.66102;;NaN;;926.0;;0 / 0;4557;2017-10-03 21:16:59:431
3.187012;-13.577976;-0.992547;-0.242009;-9.761874;-0.904222;-3.069841;-1.340019;3.109048;126.8566;88.4528;87.1633;0.0;-23.1369;8.8562;-64.7903;355.5328;84.5228;165.0164;0.0;72.38652;12.847223;77.66102;;NaN;;926.0;;0 / 0;4566;2017-10-03 21:16:59:440
3.187012;-13.577976;-0.992547;-0.242009;-9.761874;-0.904222;-3.069841;-1.340019;3.109048;126.8566;88.4528;87.1633;0.0;-23.1369;8.8562;-64.7903;355.5328;84.5228;165.0164;0.0;72.38652;12.847223;77.66102;;NaN;;926.0;;0 / 0;4576;2017-10-03 21:16:59:450
3.187012;-13.577976;-0.992547;-0.242009;-9.761874;-0.904222;-3.069841;-1.340019;3.109048;126.8566;88.4528;87.1633;0.0;-23.1369;8.8562;-64.7903;355.5328;84.5228;165.0164;0.0;72.38652;12.847223;77.66102;;NaN;;926.0;;0 / 0;4587;2017-10-03 21:16:59:461
3.187012;-13.577976;-0.992547;-0.242009;-9.761874;-0.904222;-3.069841;-1.340019;3.109048;126.8566;88.4528;87.1633;0.0;-23.1369;8.8562;-64.7903;355.5328;84.5228;165.0164;0.0;72.38652;12.847223;77.66102;;NaN;;926.0;;0 / 0;4597;2017-10-03 21:16:59:471
1.80156;-10.663518;-1.946099;-0.242009;-9.761874;-0.904222;-3.069841;-1.340019;3.109048;126.8566;88.4528;87.1633;0.0;-23.1369;8.8562;-64.7903;355.5328;84.5228;165.0164;0.0;72.38652;12.847223;77.66102;;NaN;;926.0;;0 / 0;4607;2017-10-03 21:16:59:481
1.80156;-10.663518;-1.946099;-0.242009;-9.761874;-0.904222;-3.069841;-1.340019;3.109048;126.8566;88.4528;87.1633;0.0;-23.1369;8.8562;-64.7903;355.5328;84.5228;165.0164;0.0;72.38652;12.847223;77.66102;;NaN;;926.0;;0 / 0;4616;2017-10-03 21:16:59:490
1.80156;-10.663518;-1.946099;-0.954502;-9.759172;0.133636;1.801714;1.109248;-2.119862;116.2579;92.5776;79.5327;0.0;-23.1369;8.8562;-64.7903;355.5328;84.5228;165.0164;0.0;72.38652;12.847223;77.66102;;NaN;;926.0;;0 / 0;4627;2017-10-03 21:16:59:501
1.80156;-10.663518;-1.946099;-0.954502;-9.759172;0.133636;1.801714;1.109248;-2.119862;116.2579;92.5776;79.5327;0.0;-21.7606;7.637;-66.2277;78.9489;84.3598;82.0301;0.0;72.38652;12.847223;77.66102;;NaN;;926.0;;0 / 0;4636;2017-10-03 21:16:59:510
1.714234;-8.49323;-3.271722;-0.954502;-9.759172;0.133636;1.801714;1.109248;-2.119862;116.2579;92.5776;79.5327;0.0;-21.7606;7.637;-66.2277;78.9489;84.3598;82.0301;0.0;72.38652;12.847223;77.66102;;NaN;;926.0;;0 / 0;4647;2017-10-03 21:16:59:521
1.714234;-8.49323;-3.271722;-0.954502;-9.759172;0.133636;1.801714;1.109248;-2.119862;116.2579;92.5776;79.5327;0.0;-21.7606;7.637;-66.2277;78.9489;84.3598;82.0301;0.0;72.38652;12.847223;77.66102;;NaN;;926.0;;0 / 0;4656;2017-10-03 21:16:59:530
1.714234;-8.49323;-3.271722;-0.954502;-9.759172;0.133636;1.801714;1.109248;-2.119862;116.2579;92.5776;79.5327;0.0;-21.7606;7.637;-66.2277;78.9489;84.3598;82.0301;0.0;72.38652;12.847223;77.66102;;NaN;;926.0;;0 / 0;4667;2017-10-03 21:16:59:541
2.404557;-11.181568;2.755805;-1.770548;-9.622786;0.661441;2.603363;0.94819;-2.639676;55.2115;-22.8769;90.628;0.0;-21.7606;7.637;-66.2277;78.9489;84.3598;82.0301;0.0;72.38652;12.847223;77.66102;;NaN;;926.0;;0 / 0;4676;2017-10-03 21:16:59:550
2.404557;-11.181568;2.755805;-1.770548;-9.622786;0.661441;2.603363;0.94819;-2.639676;55.2115;-22.8769;90.628;0.0;-21.7606;7.637;-66.2277;78.9489;84.3598;82.0301;0.0;72.38652;12.847223;77.66102;;NaN;;926.0;;0 / 0;4687;2017-10-03 21:16:59:561
2.404557;-11.181568;2.755805;-1.770548;-9.622786;0.661441;2.603363;0.94819;-2.639676;55.2115;-22.8769;90.628;0.0;-21.7606;7.637;-66.2277;78.9489;84.3598;82.0301;0.0;72.38652;12.847223;77.66102;;NaN;;926.0;;0 / 0;4696;2017-10-03 21:16:59:570
2.404557;-11.181568;2.755805;-1.770548;-9.622786;0.661441;2.603363;0.94819;-2.639676;55.2115;-22.8769;90.628;0.0;-20.4498;6.5643;-67.2119;92.6872;78.8877;69.5153;0.0;69.04213;12.847223;77.66102;;NaN;;926.0;;0 / 0;4707;2017-10-03 21:16:59:581
3.380829;-9.475484;4.106559;-1.770548;-9.622786;0.661441;2.603363;0.94819;-2.639676;55.2115;-22.8769;90.628;0.0;-20.4498;6.5643;-67.2119;92.6872;78.8877;69.5153;0.0;69.04213;12.847223;77.66102;;NaN;;926.0;;0 / 0;4716;2017-10-03 21:16:59:590
3.380829;-9.475484;4.106559;-1.770548;-9.622786;0.661441;2.603363;0.94819;-2.639676;55.2115;-22.8769;90.628;0.0;-20.4498;6.5643;-67.2119;92.6872;78.8877;69.5153;0.0;69.04213;12.847223;77.66102;;NaN;;926.0;;0 / 0;4727;2017-10-03 21:16:59:601
3.380829;-9.475484;4.106559;-2.2607;-9.49507;0.950398;3.008499;1.817334;-0.497154;49.5708;84.0544;48.4412;0.0;-20.4498;6.5643;-67.2119;92.6872;78.8877;69.5153;0.0;69.04213;12.847223;77.66102;;NaN;;926.0;;0 / 0;4736;2017-10-03 21:16:59:610
3.380829;-9.475484;4.106559;-2.2607;-9.49507;0.950398;3.008499;1.817334;-0.497154;49.5708;84.0544;48.4412;0.0;-20.4498;6.5643;-67.2119;92.6872;78.8877;69.5153;0.0;69.04213;12.847223;77.66102;;NaN;;926.0;;0 / 0;4747;2017-10-03 21:16:59:621
4.799775;-13.96323;0.518516;-2.2607;-9.49507;0.950398;3.008499;1.817334;-0.497154;49.5708;84.0544;48.4412;0.0;-20.4498;6.5643;-67.2119;92.6872;78.8877;69.5153;0.0;69.04213;12.847223;77.66102;;NaN;;926.0;;0 / 0;4756;2017-10-03 21:16:59:630
4.799775;-13.96323;0.518516;-2.2607;-9.49507;0.950398;3.008499;1.817334;-0.497154;49.5708;84.0544;48.4412;0.0;-18.0481;4.3381;-70.0012;97.3314;75.5183;67.1981;0.0;69.04213;12.847223;77.66102;;NaN;;926.0;;0 / 0;4767;2017-10-03 21:16:59:641
4.799775;-13.96323;0.518516;-2.2607;-9.49507;0.950398;3.008499;1.817334;-0.497154;49.5708;84.0544;48.4412;0.0;-18.0481;4.3381;-70.0012;97.3314;75.5183;67.1981;0.0;69.04213;12.847223;77.66102;;NaN;;926.0;;0 / 0;4777;2017-10-03 21:16:59:651
4.799775;-13.96323;0.518516;-2.2607;-9.49507;0.950398;3.008499;1.817334;-0.497154;49.5708;84.0544;48.4412;0.0;-18.0481;4.3381;-70.0012;97.3314;75.5183;67.1981;0.0;69.04213;12.847223;77.66102;;NaN;;926.0;;0 / 0;4786;2017-10-03 21:16:59:660
4.769868;-13.223836;-3.274102;-2.686356;-9.293292;1.608913;5.1456;0.104289;0.796571;92.1308;87.1816;42.8757;0.0;-18.0481;4.3381;-70.0012;97.3314;75.5183;67.1981;0.0;69.04213;12.847223;77.66102;;NaN;;926.0;;0 / 0;4797;2017-10-03 21:16:59:671
4.769868;-13.223836;-3.274102;-2.686356;-9.293292;1.608913;5.1456;0.104289;0.796571;92.1308;87.1816;42.8757;0.0;-18.0481;4.3381;-70.0012;97.3314;75.5183;67.1981;0.0;69.04213;12.847223;77.66102;;NaN;;926.0;;0 / 0;4806;2017-10-03 21:16:59:680
4.769868;-13.223836;-3.274102;-2.686356;-9.293292;1.608913;5.1456;0.104289;0.796571;92.1308;87.1816;42.8757;0.0;-18.0481;4.3381;-70.0012;97.3314;75.5183;67.1981;0.0;69.04213;12.847223;77.66102;;NaN;;926.0;;0 / 0;4817;2017-10-03 21:16:59:691
4.769868;-13.223836;-3.274102;-2.686356;-9.293292;1.608913;5.1456;0.104289;0.796571;92.1308;87.1816;42.8757;0.0;-18.0481;4.3381;-70.0012;97.3314;75.5183;67.1981;0.0;69.04213;12.847223;77.66102;;NaN;;926.0;;0 / 0;4827;2017-10-03 21:16:59:701
4.785416;-14.51238;2.210242;-2.686356;-9.293292;1.608913;5.1456;0.104289;0.796571;92.1308;87.1816;42.8757;0.0;-14.122;0.4166;-72.3373;108.9484;71.3791;59.0818;0.0;69.04213;12.847223;77.66102;;NaN;;926.0;;0 / 0;4837;2017-10-03 21:16:59:711
4.785416;-14.51238;2.210242;-2.686356;-9.293292;1.608913;5.1456;0.104289;0.796571;92.1308;87.1816;42.8757;0.0;-14.122;0.4166;-72.3373;108.9484;71.3791;59.0818;0.0;69.04213;12.847223;77.66102;;NaN;;926.0;;0 / 0;4846;2017-10-03 21:16:59:720
4.785416;-14.51238;2.210242;-2.845366;-9.229656;1.699325;6.245557;-2.29378;-3.377571;20.2698;14.0372;26.5252;0.0;-14.122;0.4166;-72.3373;108.9484;71.3791;59.0818;0.0;69.04213;12.847223;77.66102;;NaN;;926.0;;0 / 0;4857;2017-10-03 21:16:59:731
2.941743;-16.814274;-2.922372;-2.845366;-9.229656;1.699325;6.245557;-2.29378;-3.377571;20.2698;14.0372;26.5252;0.0;-14.122;0.4166;-72.3373;108.9484;71.3791;59.0818;0.0;69.04213;12.847223;77.66102;;NaN;;926.0;;0 / 0;4867;2017-10-03 21:16:59:741
2.941743;-16.814274;-2.922372;-2.845366;-9.229656;1.699325;6.245557;-2.29378;-3.377571;20.2698;14.0372;26.5252;0.0;-14.122;0.4166;-72.3373;108.9484;71.3791;59.0818;0.0;69.04213;12.847223;77.66102;;NaN;;926.0;;0 / 0;4877;2017-10-03 21:16:59:751
2.941743;-16.814274;-2.922372;-2.845366;-9.229656;1.699325;6.245557;-2.29378;-3.377571;20.2698;14.0372;26.5252;0.0;-14.122;0.4166;-72.3373;108.9484;71.3791;59.0818;0.0;69.04213;12.847223;77.66102;;NaN;;926.0;;0 / 0;4887;2017-10-03 21:16:59:761
