sep=;
ACCELEROMETER X (m/s²);ACCELEROMETER Y (m/s²);ACCELEROMETER Z (m/s²);GRAVITY X (m/s²);GRAVITY Y (m/s²);GRAVITY Z (m/s²);LINEAR ACCELERATION X (m/s²);LINEAR ACCELERATION Y (m/s²);LINEAR ACCELERATION Z (m/s²);GYROSCOPE X (°/s);GYROSCOPE Y (°/s);GYROSCOPE Z (°/s);LIGHT (lux);MAGNETIC FIELD X (μT);MAGNETIC FIELD Y (μT);MAGNETIC FIELD Z (μT);ORIENTATION Z (azimuth °);ORIENTATION X (pitch °);ORIENTATION Y (roll °);PROXIMITY (m);SOUND LEVEL (dB);LOCATION Latitude : ;LOCATION Longitude : ;LOCATION Altitude ( m);LOCATION Altitude-google ( m);LOCATION Speed ( Kmh);LOCATION Accuracy ( m);LOCATION ORIENTATION (°);Satellites in range;Time since start in ms ;YYYY-MO-DD HH-MI-SS_SSS
0.952119;1.935878;9.992896;0.087438;4.053819;8.929126;-0.262797;0.082265;0.129322;-2.5039;-12.9889;-0.6408;0.0;-5.9647;-32.3013;1.2573;168.496;-24.417;-0.561;5.0;48.6662;;;;NaN;;;;0 / 0;27;2017-10-03 21:14:40:284
0.952119;1.935878;9.992896;0.222735;4.016647;8.943564;-0.19338;0.04719;-0.031369;-4.1781;-12.7328;6.4643;0.0;-5.9647;-32.3013;1.2573;168.496;-24.417;-0.561;5.0;48.6662;;;;NaN;;;;0 / 0;37;2017-10-03 21:14:40:294
0.952119;1.935878;9.992896;0.222735;4.016647;8.943564;-0.19338;0.04719;-0.031369;-4.1781;-12.7328;6.4643;0.0;-5.9647;-32.3013;1.2573;168.496;-24.417;-0.561;5.0;48.6662;;;;NaN;;;;0 / 0;47;2017-10-03 21:14:40:304
0.952119;1.935878;9.992896;0.222735;4.016647;8.943564;-0.19338;0.04719;-0.031369;-4.1781;-12.7328;6.4643;0.0;-5.9647;-32.3013;1.2573;168.496;-24.417;-0.561;5.0;48.6662;;;;NaN;;;;0 / 0;56;2017-10-03 21:14:40:313
1.845826;1.766002;9.468864;0.222735;4.016647;8.943564;-0.19338;0.04719;-0.031369;-4.1781;-12.7328;6.4643;0.0;-5.9647;-32.3013;1.2573;168.496;-24.417;-0.561;5.0;48.6662;;;;NaN;;;;0 / 0;67;2017-10-03 21:14:40:324
1.845826;1.766002;9.468864;0.222735;4.016647;8.943564;-0.19338;0.04719;-0.031369;-4.1781;-12.7328;6.4643;0.0;-5.7526;-32.4158;1.2573;168.4761;-24.1787;-1.4266;5.0;48.6662;;;;NaN;;;;0 / 0;77;2017-10-03 21:14:40:334
1.845826;1.766002;9.468864;0.222735;4.016647;8.943564;-0.19338;0.04719;-0.031369;-4.1781;-12.7328;6.4643;0.0;-5.7526;-32.4158;1.2573;168.4761;-24.1787;-1.4266;5.0;48.6662;;;;NaN;;;;0 / 0;87;2017-10-03 21:14:40:344
1.672349;1.966991;10.041954;0.341422;4.059039;8.920652;-0.453739;0.133972;0.281428;5.2019;-8.3405;13.1551;0.0;-5.7526;-32.4158;1.2573;168.4761;-24.1787;-1.4266;5.0;48.6662;;;;NaN;;;;0 / 0;96;2017-10-03 21:14:40:353
1.672349;1.966991;10.041954;0.341422;4.059039;8.920652;-0.453739;0.133972;0.281428;5.2019;-8.3405;13.1551;0.0;-5.7526;-32.4158;1.2573;168.4761;-24.1787;-1.4266;5.0;48.6662;;;;NaN;;;;0 / 0;106;2017-10-03 21:14:40:363
1.672349;1.966991;10.041954;0.341422;4.059039;8.920652;-0.453739;0.133972;0.281428;5.2019;-8.3405;13.1551;0.0;-5.7526;-32.4158;1.2573;168.4761;-24.1787;-1.4266;5.0;48.6662;;;;NaN;;;;0 / 0;117;2017-10-03 21:14:40:374
1.672349;1.966991;10.041954;0.341422;4.059039;8.920652;-0.453739;0.133972;0.281428;5.2019;-8.3405;13.1551;0.0;-5.7526;-32.4158;1.2573;168.4761;-24.1787;-1.4266;5.0;48.6662;;;;NaN;;;;0 / 0;127;2017-10-03 21:14:40:384
0.77385;2.190715;9.826592;0.341422;4.059039;8.920652;-0.453739;0.133972;0.281428;5.2019;-8.3405;13.1551;0.0;-5.4779;-32.4753;1.1856;170.3036;-24.4505;-2.1918;5.0;48.6662;;;;NaN;;;;0 / 0;137;2017-10-03 21:14:40:394
0.77385;2.190715;9.826592;0.341422;4.059039;8.920652;-0.453739;0.133972;0.281428;5.2019;-8.3405;13.1551;0.0;-5.4779;-32.4753;1.1856;170.3036;-24.4505;-2.1918;5.0;48.6662;;;;NaN;;;;0 / 0;146;2017-10-03 21:14:40:403
0.77385;2.190715;9.826592;0.177817;4.31929;8.802416;0.056715;-0.15535;0.456773;30.5888;24.2512;11.7081;0.0;-5.4779;-32.4753;1.1856;170.3036;-24.4505;-2.1918;5.0;48.6662;;;;NaN;;;;0 / 0;157;2017-10-03 21:14:40:414
0.77385;2.190715;9.826592;0.177817;4.31929;8.802416;0.056715;-0.15535;0.456773;30.5888;24.2512;11.7081;0.0;-5.4779;-32.4753;1.1856;170.3036;-24.4505;-2.1918;5.0;48.6662;;;;NaN;;;;0 / 0;167;2017-10-03 21:14:40:424
2.159287;1.836589;8.207847;0.177817;4.31929;8.802416;0.056715;-0.15535;0.456773;30.5888;24.2512;11.7081;0.0;-5.4779;-32.4753;1.1856;170.3036;-24.4505;-2.1918;5.0;48.6662;;;;NaN;;;;0 / 0;176;2017-10-03 21:14:40:433
2.159287;1.836589;8.207847;0.177817;4.31929;8.802416;0.056715;-0.15535;0.456773;30.5888;24.2512;11.7081;0.0;-5.4779;-32.4753;1.1856;170.3036;-24.4505;-2.1918;5.0;48.6662;;;;NaN;;;;0 / 0;187;2017-10-03 21:14:40:444
2.159287;1.836589;8.207847;0.177817;4.31929;8.802416;0.056715;-0.15535;0.456773;30.5888;24.2512;11.7081;0.0;-5.4779;-32.4753;1.1856;170.3036;-24.4505;-2.1918;5.0;48.6662;;;;NaN;;;;0 / 0;197;2017-10-03 21:14:40:454
2.159287;1.836589;8.207847;0.177817;4.31929;8.802416;0.056715;-0.15535;0.456773;30.5888;24.2512;11.7081;0.0;-5.3528;-32.4234;1.088;170.2221;-26.1323;-1.1573;5.0;48.6662;;;;NaN;;;;0 / 0;207;2017-10-03 21:14:40:464
2.408143;2.00767;9.24514;0.308276;4.387468;8.765016;-0.415073;-0.404527;-0.42762;8.5853;-6.5727;18.4513;0.0;-5.3528;-32.4234;1.088;170.2221;-26.1323;-1.1573;5.0;48.6662;;;;NaN;;;;0 / 0;217;2017-10-03 21:14:40:474
2.408143;2.00767;9.24514;0.308276;4.387468;8.765016;-0.415073;-0.404527;-0.42762;8.5853;-6.5727;18.4513;0.0;-5.3528;-32.4234;1.088;170.2221;-26.1323;-1.1573;5.0;48.6662;;;;NaN;;;;0 / 0;226;2017-10-03 21:14:40:483
2.408143;2.00767;9.24514;0.308276;4.387468;8.765016;-0.415073;-0.404527;-0.42762;8.5853;-6.5727;18.4513;0.0;-5.3528;-32.4234;1.088;170.2221;-26.1323;-1.1573;5.0;48.6662;;;;NaN;;;;0 / 0;238;2017-10-03 21:14:40:495
2.034867;2.036388;10.16877;0.308276;4.387468;8.765016;-0.415073;-0.404527;-0.42762;8.5853;-6.5727;18.4513;0.0;-5.3528;-32.4234;1.088;170.2221;-26.1323;-1.1573;5.0;48.6662;;;;NaN;;;;0 / 0;246;2017-10-03 21:14:40:503
2.034867;2.036388;10.16877;0.308276;4.387468;8.765016;-0.415073;-0.404527;-0.42762;8.5853;-6.5727;18.4513;0.0;-5.3528;-32.4234;1.088;170.2221;-26.1323;-1.1573;5.0;48.6662;;;;NaN;;;;0 / 0;256;2017-10-03 21:14:40:513
2.034867;2.036388;10.16877;0.312934;4.416238;8.75039;0.628562;-0.162907;0.389902;4.0933;3.595;5.8751;0.0;-5.3528;-32.4234;1.088;170.2221;-26.1323;-1.1573;5.0;48.6662;;;;NaN;;;;0 / 0;267;2017-10-03 21:14:40:524
2.034867;2.036388;10.16877;0.312934;4.416238;8.75039;0.628562;-0.162907;0.389902;4.0933;3.595;5.8751;0.0;-5.0674;-32.5424;1.0315;170.4252;-26.7649;-2.0482;5.0;48.6662;;;;NaN;;;;0 / 0;277;2017-10-03 21:14:40:534
0.997574;2.775767;7.821403;0.312934;4.416238;8.75039;0.628562;-0.162907;0.389902;4.0933;3.595;5.8751;0.0;-5.0674;-32.5424;1.0315;170.4252;-26.7649;-2.0482;5.0;48.6662;;;;NaN;;;;0 / 0;286;2017-10-03 21:14:40:543
0.997574;2.775767;7.821403;0.312934;4.416238;8.75039;0.628562;-0.162907;0.389902;4.0933;3.595;5.8751;0.0;-5.0674;-32.5424;1.0315;170.4252;-26.7649;-2.0482;5.0;48.6662;;;;NaN;;;;0 / 0;298;2017-10-03 21:14:40:555
0.997574;2.775767;7.821403;0.312934;4.416238;8.75039;0.628562;-0.162907;0.389902;4.0933;3.595;5.8751;0.0;-5.0674;-32.5424;1.0315;170.4252;-26.7649;-2.0482;5.0;48.6662;;;;NaN;;;;0 / 0;306;2017-10-03 21:14:40:563
0.997574;2.775767;7.821403;0.312934;4.416238;8.75039;0.628562;-0.162907;0.389902;4.0933;3.595;5.8751;0.0;-5.0674;-32.5424;1.0315;170.4252;-26.7649;-2.0482;5.0;48.56842;;;;NaN;;;;0 / 0;316;2017-10-03 21:14:40:573
1.477341;2.796107;9.543052;0.143467;4.620057;8.648982;-0.252193;0.310279;-0.056471;22.8069;12.3743;-13.0834;0.0;-5.0674;-32.5424;1.0315;170.4252;-26.7649;-2.0482;5.0;48.56842;;;;NaN;;;;0 / 0;326;2017-10-03 21:14:40:583
1.477341;2.796107;9.543052;0.143467;4.620057;8.648982;-0.252193;0.310279;-0.056471;22.8069;12.3743;-13.0834;1.0;-5.0674;-32.5424;1.0315;170.4252;-26.7649;-2.0482;5.0;48.56842;;;;NaN;;;;0 / 0;336;2017-10-03 21:14:40:593
1.477341;2.796107;9.543052;0.143467;4.620057;8.648982;-0.252193;0.310279;-0.056471;22.8069;12.3743;-13.0834;1.0;-5.1254;-32.5272;1.088;170.3632;-28.1067;-0.9503;5.0;48.56842;;;;NaN;;;;0 / 0;348;2017-10-03 21:14:40:605
1.477341;2.796107;9.543052;0.143467;4.620057;8.648982;-0.252193;0.310279;-0.056471;22.8069;12.3743;-13.0834;1.0;-5.1254;-32.5272;1.088;170.3632;-28.1067;-0.9503;5.0;48.56842;;;;NaN;;;;0 / 0;356;2017-10-03 21:14:40:613
0.479539;2.977962;8.87426;0.143467;4.620057;8.648982;-0.252193;0.310279;-0.056471;22.8069;12.3743;-13.0834;1.0;-5.1254;-32.5272;1.088;170.3632;-28.1067;-0.9503;5.0;48.56842;;;;NaN;;;;0 / 0;367;2017-10-03 21:14:40:624
0.479539;2.977962;8.87426;0.054767;4.84166;8.527938;-0.160922;0.081419;0.06666;25.8406;3.4088;-12.1558;1.0;-5.1254;-32.5272;1.088;170.3632;-28.1067;-0.9503;5.0;48.56842;;;;NaN;;;;0 / 0;377;2017-10-03 21:14:40:634
0.479539;2.977962;8.87426;0.054767;4.84166;8.527938;-0.160922;0.081419;0.06666;25.8406;3.4088;-12.1558;1.0;-5.1254;-32.5272;1.088;170.3632;-28.1067;-0.9503;5.0;48.56842;;;;NaN;;;;0 / 0;387;2017-10-03 21:14:40:644
1.84105;2.689632;8.328681;0.054767;4.84166;8.527938;-0.160922;0.081419;0.06666;25.8406;3.4088;-12.1558;1.0;-5.1254;-32.5272;1.088;170.3632;-28.1067;-0.9503;5.0;48.56842;;;;NaN;;;;0 / 0;397;2017-10-03 21:14:40:654
1.84105;2.689632;8.328681;0.054767;4.84166;8.527938;-0.160922;0.081419;0.06666;25.8406;3.4088;-12.1558;1.0;-5.0751;-32.4753;1.0635;169.9701;-29.5848;-0.368;5.0;48.56842;;;;NaN;;;;0 / 0;406;2017-10-03 21:14:40:663
1.84105;2.689632;8.328681;0.054767;4.84166;8.527938;-0.160922;0.081419;0.06666;25.8406;3.4088;-12.1558;1.0;-5.0751;-32.4753;1.0635;169.9701;-29.5848;-0.368;5.0;48.56842;;;;NaN;;;;0 / 0;416;2017-10-03 21:14:40:673
1.84105;2.689632;8.328681;0.054767;4.84166;8.527938;-0.160922;0.081419;0.06666;25.8406;3.4088;-12.1558;1.0;-5.0751;-32.4753;1.0635;169.9701;-29.5848;-0.368;5.0;48.56842;;;;NaN;;;;0 / 0;427;2017-10-03 21:14:40:684
0.704453;2.876262;8.99987;-0.185726;5.038803;8.411086;-0.310057;0.097198;-0.048807;23.3149;26.6371;-2.5188;1.0;-5.0751;-32.4753;1.0635;169.9701;-29.5848;-0.368;5.0;48.56842;;;;NaN;;;;0 / 0;437;2017-10-03 21:14:40:694
0.704453;2.876262;8.99987;-0.185726;5.038803;8.411086;-0.310057;0.097198;-0.048807;23.3149;26.6371;-2.5188;1.0;-5.0751;-32.4753;1.0635;169.9701;-29.5848;-0.368;5.0;48.56842;;;;NaN;;;;0 / 0;446;2017-10-03 21:14:40:703
0.704453;2.876262;8.99987;-0.185726;5.038803;8.411086;-0.310057;0.097198;-0.048807;23.3149;26.6371;-2.5188;1.0;-5.0751;-32.4753;1.0635;169.9701;-29.5848;-0.368;5.0;48.56842;;;;NaN;;;;0 / 0;456;2017-10-03 21:14:40:713
0.704453;2.876262;8.99987;-0.185726;5.038803;8.411086;-0.310057;0.097198;-0.048807;23.3149;26.6371;-2.5188;1.0;-5.0751;-32.4753;1.0635;169.9701;-29.5848;-0.368;5.0;48.56842;;;;NaN;;;;0 / 0;466;2017-10-03 21:14:40:723
1.263184;2.797298;9.505958;-0.185726;5.038803;8.411086;-0.310057;0.097198;-0.048807;23.3149;26.6371;-2.5188;1.0;-4.9454;-32.4539;1.1368;169.9297;-30.9183;1.265;5.0;48.56842;;;;NaN;;;;0 / 0;476;2017-10-03 21:14:40:733
1.263184;2.797298;9.505958;-0.185726;5.038803;8.411086;-0.310057;0.097198;-0.048807;23.3149;26.6371;-2.5188;1.0;-4.9454;-32.4539;1.1368;169.9297;-30.9183;1.265;5.0;48.56842;;;;NaN;;;;0 / 0;486;2017-10-03 21:14:40:743
1.263184;2.797298;9.505958;0.154155;4.906473;8.489592;-0.524591;0.149376;-0.200068;-16.1949;-40.523;1.8788;1.0;-4.9454;-32.4539;1.1368;169.9297;-30.9183;1.265;5.0;48.56842;;;;NaN;;;;0 / 0;496;2017-10-03 21:14:40:753
1.263184;2.797298;9.505958;0.154155;4.906473;8.489592;-0.524591;0.149376;-0.200068;-16.1949;-40.523;1.8788;1.0;-4.9454;-32.4539;1.1368;169.9297;-30.9183;1.265;5.0;48.56842;;;;NaN;;;;0 / 0;506;2017-10-03 21:14:40:763
2.907044;2.053126;8.97953;0.154155;4.906473;8.489592;-0.524591;0.149376;-0.200068;-16.1949;-40.523;1.8788;1.0;-4.9454;-32.4539;1.1368;169.9297;-30.9183;1.265;5.0;48.56842;;;;NaN;;;;0 / 0;516;2017-10-03 21:14:40:773
2.907044;2.053126;8.97953;0.154155;4.906473;8.489592;-0.524591;0.149376;-0.200068;-16.1949;-40.523;1.8788;1.0;-4.9454;-32.4539;1.1368;169.9297;-30.9183;1.265;5.0;48.56842;;;;NaN;;;;0 / 0;527;2017-10-03 21:14:40:784
2.907044;2.053126;8.97953;0.154155;4.906473;8.489592;-0.524591;0.149376;-0.200068;-16.1949;-40.523;1.8788;1.0;-4.9454;-32.4539;1.1368;169.9297;-30.9183;1.265;5.0;48.56842;;;;NaN;;;;0 / 0;537;2017-10-03 21:14:40:794
1.239258;2.522121;10.429588;0.154155;4.906473;8.489592;-0.524591;0.149376;-0.200068;-16.1949;-40.523;1.8788;1.0;-4.7577;-32.4585;1.1856;169.8981;-30.0212;-1.0403;5.0;48.56842;;;;NaN;;;;0 / 0;547;2017-10-03 21:14:40:804
1.239258;2.522121;10.429588;0.350817;4.838946;8.522436;0.422565;-0.061658;0.24591;-7.836;-24.7609;-3.9018;1.0;-4.7577;-32.4585;1.1856;169.8981;-30.0212;-1.0403;5.0;48.56842;;;;NaN;;;;0 / 0;557;2017-10-03 21:14:40:814
1.239258;2.522121;10.429588;0.350817;4.838946;8.522436;0.422565;-0.061658;0.24591;-7.836;-24.7609;-3.9018;1.0;-4.7577;-32.4585;1.1856;169.8981;-30.0212;-1.0403;5.0;48.56842;;;;NaN;;;;0 / 0;567;2017-10-03 21:14:40:824
1.239258;2.522121;10.429588;0.350817;4.838946;8.522436;0.422565;-0.061658;0.24591;-7.836;-24.7609;-3.9018;1.0;-4.7577;-32.4585;1.1856;169.8981;-30.0212;-1.0403;5.0;48.56842;;;;NaN;;;;0 / 0;577;2017-10-03 21:14:40:834
1.43068;2.613048;9.904366;0.350817;4.838946;8.522436;0.422565;-0.061658;0.24591;-7.836;-24.7609;-3.9018;1.0;-4.7577;-32.4585;1.1856;169.8981;-30.0212;-1.0403;5.0;48.56842;;;;NaN;;;;0 / 0;587;2017-10-03 21:14:40:844
1.43068;2.613048;9.904366;0.350817;4.838946;8.522436;0.422565;-0.061658;0.24591;-7.836;-24.7609;-3.9018;1.0;-4.7577;-32.4585;1.1856;169.8981;-30.0212;-1.0403;5.0;48.56842;;;;NaN;;;;0 / 0;596;2017-10-03 21:14:40:853
1.43068;2.613048;9.904366;0.313386;5.007569;8.425938;-0.194256;-0.325719;1.19351;21.1275;-2.5415;-11.3567;1.0;-4.7165;-32.399;1.2329;169.7831;-30.7058;-2.13;5.0;48.56842;;;;NaN;;;;0 / 0;606;2017-10-03 21:14:40:863
1.43068;2.613048;9.904366;0.313386;5.007569;8.425938;-0.194256;-0.325719;1.19351;21.1275;-2.5415;-11.3567;1.0;-4.7165;-32.399;1.2329;169.7831;-30.7058;-2.13;5.0;48.56842;;;;NaN;;;;0 / 0;617;2017-10-03 21:14:40:874
1.228486;3.305781;8.17794;0.313386;5.007569;8.425938;-0.194256;-0.325719;1.19351;21.1275;-2.5415;-11.3567;1.0;-4.7165;-32.399;1.2329;169.7831;-30.7058;-2.13;5.0;65.39162;;;;NaN;;;;0 / 0;627;2017-10-03 21:14:40:884
1.228486;3.305781;8.17794;0.313386;5.007569;8.425938;-0.194256;-0.325719;1.19351;21.1275;-2.5415;-11.3567;1.0;-4.7165;-32.399;1.2329;169.7831;-30.7058;-2.13;5.0;65.39162;;;;NaN;;;;0 / 0;636;2017-10-03 21:14:40:893
1.228486;3.305781;8.17794;0.313386;5.007569;8.425938;-0.194256;-0.325719;1.19351;21.1275;-2.5415;-11.3567;1.0;-4.7165;-32.399;1.2329;169.7831;-30.7058;-2.13;5.0;65.39162;;;;NaN;;;;0 / 0;648;2017-10-03 21:14:40:905
1.228486;3.305781;8.17794;0.313386;5.007569;8.425938;-0.194256;-0.325719;1.19351;21.1275;-2.5415;-11.3567;1.0;-4.7165;-32.399;1.2329;169.7831;-30.7058;-2.13;5.0;65.39162;;;;NaN;;;;0 / 0;657;2017-10-03 21:14:40:914
1.624497;2.957622;9.30735;0.331482;5.199363;8.308257;-0.359043;0.080729;-0.260233;22.4397;-8.177;-8.6849;1.0;-4.7165;-32.399;1.2329;169.7831;-30.7058;-2.13;5.0;65.39162;;;;NaN;;;;0 / 0;667;2017-10-03 21:14:40:924
1.624497;2.957622;9.30735;0.331482;5.199363;8.308257;-0.359043;0.080729;-0.260233;22.4397;-8.177;-8.6849;1.0;-4.5532;-32.4036;1.4038;169.6435;-32.0181;-2.2848;5.0;65.39162;;;;NaN;;;;0 / 0;676;2017-10-03 21:14:40:933
1.624497;2.957622;9.30735;0.331482;5.199363;8.308257;-0.359043;0.080729;-0.260233;22.4397;-8.177;-8.6849;1.0;-4.5532;-32.4036;1.4038;169.6435;-32.0181;-2.2848;5.0;65.39162;;;;NaN;;;;0 / 0;686;2017-10-03 21:14:40:943
1.626893;3.27946;9.007056;0.331482;5.199363;8.308257;-0.359043;0.080729;-0.260233;22.4397;-8.177;-8.6849;1.0;-4.5532;-32.4036;1.4038;169.6435;-32.0181;-2.2848;5.0;65.39162;;;;NaN;;;;0 / 0;696;2017-10-03 21:14:40:953
1.626893;3.27946;9.007056;0.331482;5.199363;8.308257;-0.359043;0.080729;-0.260233;22.4397;-8.177;-8.6849;1.0;-4.5532;-32.4036;1.4038;169.6435;-32.0181;-2.2848;5.0;65.39162;;;;NaN;;;;0 / 0;707;2017-10-03 21:14:40:964
1.626893;3.27946;9.007056;0.355004;5.328731;8.224901;-0.119579;0.08607;0.387196;15.8539;-5.7614;-4.123;1.0;-4.5532;-32.4036;1.4038;169.6435;-32.0181;-2.2848;5.0;65.39162;;;;NaN;;;;0 / 0;717;2017-10-03 21:14:40:974
1.626893;3.27946;9.007056;0.355004;5.328731;8.224901;-0.119579;0.08607;0.387196;15.8539;-5.7614;-4.123;1.0;-4.5532;-32.4036;1.4038;169.6435;-32.0181;-2.2848;5.0;65.39162;;;;NaN;;;;0 / 0;726;2017-10-03 21:14:40:983
1.662781;3.431392;9.382728;0.355004;5.328731;8.224901;-0.119579;0.08607;0.387196;15.8539;-5.7614;-4.123;1.0;-4.5532;-32.4036;1.4038;169.6435;-32.0181;-2.2848;5.0;65.39162;;;;NaN;;;;0 / 0;737;2017-10-03 21:14:40:994
1.662781;3.431392;9.382728;0.355004;5.328731;8.224901;-0.119579;0.08607;0.387196;15.8539;-5.7614;-4.123;1.0;-4.5563;-32.3715;1.5015;169.6529;-32.914;-2.4715;5.0;65.39162;;;;NaN;;;;0 / 0;746;2017-10-03 21:14:41:003
1.662781;3.431392;9.382728;0.355004;5.328731;8.224901;-0.119579;0.08607;0.387196;15.8539;-5.7614;-4.123;1.0;-4.5563;-32.3715;1.5015;169.6529;-32.914;-2.4715;5.0;65.39162;;;;NaN;;;;0 / 0;756;2017-10-03 21:14:41:013
1.662781;3.431392;9.382728;0.355004;5.328731;8.224901;-0.119579;0.08607;0.387196;15.8539;-5.7614;-4.123;1.0;-4.5563;-32.3715;1.5015;169.6529;-32.914;-2.4715;5.0;65.39162;;;;NaN;;;;0 / 0;766;2017-10-03 21:14:41:023
1.196183;3.802287;7.957801;0.391234;5.465914;8.132718;-0.15718;-0.058765;0.477242;17.3699;-6.1933;-2.0816;1.0;-4.5563;-32.3715;1.5015;169.6529;-32.914;-2.4715;5.0;65.39162;;;;NaN;;;;0 / 0;776;2017-10-03 21:14:41:033
1.196183;3.802287;7.957801;0.391234;5.465914;8.132718;-0.15718;-0.058765;0.477242;17.3699;-6.1933;-2.0816;1.0;-4.5563;-32.3715;1.5015;169.6529;-32.914;-2.4715;5.0;65.39162;;;;NaN;;;;0 / 0;786;2017-10-03 21:14:41:043
1.196183;3.802287;7.957801;0.391234;5.465914;8.132718;-0.15718;-0.058765;0.477242;17.3699;-6.1933;-2.0816;1.0;-4.5563;-32.3715;1.5015;169.6529;-32.914;-2.4715;5.0;65.39162;;;;NaN;;;;0 / 0;797;2017-10-03 21:14:41:054
1.196183;3.802287;7.957801;0.391234;5.465914;8.132718;-0.15718;-0.058765;0.477242;17.3699;-6.1933;-2.0816;1.0;-4.5563;-32.3715;1.5015;169.6529;-32.914;-2.4715;5.0;65.39162;;;;NaN;;;;0 / 0;806;2017-10-03 21:14:41:063
1.789597;3.295009;8.232978;0.391234;5.465914;8.132718;-0.15718;-0.058765;0.477242;17.3699;-6.1933;-2.0816;1.0;-4.4693;-32.3242;1.6479;171.5602;-33.874;-2.7542;5.0;65.39162;;;;NaN;;;;0 / 0;816;2017-10-03 21:14:41:073
1.789597;3.295009;8.232978;0.391234;5.465914;8.132718;-0.15718;-0.058765;0.477242;17.3699;-6.1933;-2.0816;1.0;-4.4693;-32.3242;1.6479;171.5602;-33.874;-2.7542;5.0;65.39162;;;;NaN;;;;0 / 0;826;2017-10-03 21:14:41:083
1.789597;3.295009;8.232978;0.411146;5.453754;8.139898;-0.37509;0.31684;-0.10408;-1.3665;6.2082;14.0529;1.0;-4.4693;-32.3242;1.6479;171.5602;-33.874;-2.7542;5.0;65.39162;;;;NaN;;;;0 / 0;836;2017-10-03 21:14:41:093
1.789597;3.295009;8.232978;0.411146;5.453754;8.139898;-0.37509;0.31684;-0.10408;-1.3665;6.2082;14.0529;1.0;-4.4693;-32.3242;1.6479;171.5602;-33.874;-2.7542;5.0;65.39162;;;;NaN;;;;0 / 0;846;2017-10-03 21:14:41:103
1.96547;2.804484;9.333672;0.411146;5.453754;8.139898;-0.37509;0.31684;-0.10408;-1.3665;6.2082;14.0529;1.0;-4.4693;-32.3242;1.6479;171.5602;-33.874;-2.7542;5.0;65.39162;;;;NaN;;;;0 / 0;858;2017-10-03 21:14:41:115
1.96547;2.804484;9.333672;0.411146;5.453754;8.139898;-0.37509;0.31684;-0.10408;-1.3665;6.2082;14.0529;1.0;-4.4693;-32.3242;1.6479;171.5602;-33.874;-2.7542;5.0;65.39162;;;;NaN;;;;0 / 0;867;2017-10-03 21:14:41:124
1.96547;2.804484;9.333672;0.411146;5.453754;8.139898;-0.37509;0.31684;-0.10408;-1.3665;6.2082;14.0529;1.0;-4.3228;-32.2968;1.7929;171.5571;-33.7885;-2.8915;5.0;65.39162;;;;NaN;;;;0 / 0;877;2017-10-03 21:14:41:134
1.011933;3.138271;7.641944;0.407707;5.496064;8.111562;0.105025;-0.216189;0.08344;6.1819;7.8185;10.6582;1.0;-4.3228;-32.2968;1.7929;171.5571;-33.7885;-2.8915;5.0;65.39162;;;;NaN;;;;0 / 0;887;2017-10-03 21:14:41:144
1.011933;3.138271;7.641944;0.407707;5.496064;8.111562;0.105025;-0.216189;0.08344;6.1819;7.8185;10.6582;1.0;-4.3228;-32.2968;1.7929;171.5571;-33.7885;-2.8915;5.0;65.39162;;;;NaN;;;;0 / 0;896;2017-10-03 21:14:41:153
1.011933;3.138271;7.641944;0.407707;5.496064;8.111562;0.105025;-0.216189;0.08344;6.1819;7.8185;10.6582;1.0;-4.3228;-32.2968;1.7929;171.5571;-33.7885;-2.8915;5.0;65.39162;;;;NaN;;;;0 / 0;907;2017-10-03 21:14:41:164
1.011933;3.138271;7.641944;0.407707;5.496064;8.111562;0.105025;-0.216189;0.08344;6.1819;7.8185;10.6582;1.0;-4.3228;-32.2968;1.7929;171.5571;-33.7885;-2.8915;5.0;65.39162;;;;NaN;;;;0 / 0;917;2017-10-03 21:14:41:174
3.276734;2.144054;8.559592;0.407707;5.496064;8.111562;0.105025;-0.216189;0.08344;6.1819;7.8185;10.6582;1.0;-4.3228;-32.2968;1.7929;171.5571;-33.7885;-2.8915;5.0;65.39162;;;;NaN;;;;0 / 0;926;2017-10-03 21:14:41:183
3.276734;2.144054;8.559592;0.407707;5.496064;8.111562;0.105025;-0.216189;0.08344;6.1819;7.8185;10.6582;7.0;-4.3228;-32.2968;1.7929;171.5571;-33.7885;-2.8915;5.0;65.39162;;;;NaN;;;;0 / 0;937;2017-10-03 21:14:41:194
3.276734;2.144054;8.559592;0.358353;5.507973;8.105813;-0.065587;-0.208336;-0.667973;1.8945;16.959;16.1302;7.0;-4.2969;-32.2968;2.0126;171.5324;-34.0864;-2.8774;5.0;55.43004;;;;NaN;;;;0 / 0;947;2017-10-03 21:14:41:204
3.276734;2.144054;8.559592;0.358353;5.507973;8.105813;-0.065587;-0.208336;-0.667973;1.8945;16.959;16.1302;7.0;-4.2969;-32.2968;2.0126;171.5324;-34.0864;-2.8774;5.0;55.43004;;;;NaN;;;;0 / 0;956;2017-10-03 21:14:41:213
1.031083;3.370387;6.721915;0.358353;5.507973;8.105813;-0.065587;-0.208336;-0.667973;1.8945;16.959;16.1302;7.0;-4.2969;-32.2968;2.0126;171.5324;-34.0864;-2.8774;5.0;55.43004;;;;NaN;;;;0 / 0;967;2017-10-03 21:14:41:224
1.031083;3.370387;6.721915;0.358353;5.507973;8.105813;-0.065587;-0.208336;-0.667973;1.8945;16.959;16.1302;7.0;-4.2969;-32.2968;2.0126;171.5324;-34.0864;-2.8774;5.0;55.43004;;;;NaN;;;;0 / 0;977;2017-10-03 21:14:41:234
1.031083;3.370387;6.721915;0.358353;5.507973;8.105813;-0.065587;-0.208336;-0.667973;1.8945;16.959;16.1302;7.0;-4.2969;-32.2968;2.0126;171.5324;-34.0864;-2.8774;5.0;55.43004;;;;NaN;;;;0 / 0;986;2017-10-03 21:14:41:243
1.031083;3.370387;6.721915;0.358353;5.507973;8.105813;-0.065587;-0.208336;-0.667973;1.8945;16.959;16.1302;7.0;-4.2969;-32.2968;2.0126;171.5324;-34.0864;-2.8774;5.0;55.43004;;;;NaN;;;;0 / 0;996;2017-10-03 21:14:41:253
3.03267;2.543666;7.691001;0.345394;5.610858;8.035506;0.153382;-0.582097;-1.314794;12.9776;9.2943;10.5532;7.0;-4.2969;-32.2968;2.0126;171.5324;-34.0864;-2.8774;5.0;55.43004;;;;NaN;;;;0 / 0;1007;2017-10-03 21:14:41:264
3.03267;2.543666;7.691001;0.345394;5.610858;8.035506;0.153382;-0.582097;-1.314794;12.9776;9.2943;10.5532;7.0;-4.3213;-32.2403;2.2324;171.4924;-34.9002;-2.4613;5.0;55.43004;;;;NaN;;;;0 / 0;1016;2017-10-03 21:14:41:273
3.03267;2.543666;7.691001;0.345394;5.610858;8.035506;0.153382;-0.582097;-1.314794;12.9776;9.2943;10.5532;7.0;-4.3213;-32.2403;2.2324;171.4924;-34.9002;-2.4613;5.0;55.43004;;;;NaN;;;;0 / 0;1028;2017-10-03 21:14:41:285
3.03267;2.543666;7.691001;0.345394;5.610858;8.035506;0.153382;-0.582097;-1.314794;12.9776;9.2943;10.5532;7.0;-4.3213;-32.2403;2.2324;171.4924;-34.9002;-2.4613;5.0;55.43004;;;;NaN;;;;0 / 0;1036;2017-10-03 21:14:41:293
2.676148;2.45872;7.844138;0.345394;5.610858;8.035506;0.153382;-0.582097;-1.314794;12.9776;9.2943;10.5532;7.0;-4.3213;-32.2403;2.2324;171.4924;-34.9002;-2.4613;5.0;55.43004;;;;NaN;;;;0 / 0;1046;2017-10-03 21:14:41:303
2.676148;2.45872;7.844138;0.345394;5.610858;8.035506;0.153382;-0.582097;-1.314794;12.9776;9.2943;10.5532;7.0;-4.3213;-32.2403;2.2324;171.4924;-34.9002;-2.4613;5.0;55.43004;;;;NaN;;;;0 / 0;1056;2017-10-03 21:14:41:313
2.676148;2.45872;7.844138;0.510008;5.698156;7.965005;1.030188;-0.972347;-0.896183;11.0236;-25.3388;-9.6073;7.0;-4.3213;-32.2403;2.2324;171.4924;-34.9002;-2.4613;5.0;55.43004;;;;NaN;;;;0 / 0;1066;2017-10-03 21:14:41:323
2.676148;2.45872;7.844138;0.510008;5.698156;7.965005;1.030188;-0.972347;-0.896183;11.0236;-25.3388;-9.6073;7.0;-4.3213;-32.2403;2.2324;171.4924;-34.9002;-2.4613;5.0;55.43004;;;;NaN;;;;0 / 0;1076;2017-10-03 21:14:41:333
1.573044;2.559215;6.160789;0.510008;5.698156;7.965005;1.030188;-0.972347;-0.896183;11.0236;-25.3388;-9.6073;7.0;-4.2969;-32.1365;2.4506;171.3422;-35.5244;-3.6637;5.0;55.43004;;;;NaN;;;;0 / 0;1086;2017-10-03 21:14:41:343
1.573044;2.559215;6.160789;0.510008;5.698156;7.965005;1.030188;-0.972347;-0.896183;11.0236;-25.3388;-9.6073;7.0;-4.2969;-32.1365;2.4506;171.3422;-35.5244;-3.6637;5.0;55.43004;;;;NaN;;;;0 / 0;1096;2017-10-03 21:14:41:353
1.573044;2.559215;6.160789;0.510008;5.698156;7.965005;1.030188;-0.972347;-0.896183;11.0236;-25.3388;-9.6073;7.0;-4.2969;-32.1365;2.4506;171.3422;-35.5244;-3.6637;5.0;55.43004;;;;NaN;;;;0 / 0;1107;2017-10-03 21:14:41:364
2.958497;2.620235;6.853507;0.732416;5.623657;8.000529;0.132704;-0.791397;-1.881982;-11.5919;-40.8439;-18.7128;7.0;-4.2969;-32.1365;2.4506;171.3422;-35.5244;-3.6637;5.0;55.43004;;;;NaN;;;;0 / 0;1116;2017-10-03 21:14:41:373
2.958497;2.620235;6.853507;0.732416;5.623657;8.000529;0.132704;-0.791397;-1.881982;-11.5919;-40.8439;-18.7128;7.0;-4.2969;-32.1365;2.4506;171.3422;-35.5244;-3.6637;5.0;55.43004;;;;NaN;;;;0 / 0;1126;2017-10-03 21:14:41:383
2.958497;2.620235;6.853507;0.732416;5.623657;8.000529;0.132704;-0.791397;-1.881982;-11.5919;-40.8439;-18.7128;7.0;-4.2969;-32.1365;2.4506;171.3422;-35.5244;-3.6637;5.0;55.43004;;;;NaN;;;;0 / 0;1136;2017-10-03 21:14:41:393
2.958497;2.620235;6.853507;0.732416;5.623657;8.000529;0.132704;-0.791397;-1.881982;-11.5919;-40.8439;-18.7128;7.0;-4.2969;-32.1365;2.597;171.2695;-34.9914;-5.2306;5.0;55.43004;;;;NaN;;;;0 / 0;1147;2017-10-03 21:14:41:404
-0.876006;2.285243;5.006248;0.732416;5.623657;8.000529;0.132704;-0.791397;-1.881982;-11.5919;-40.8439;-18.7128;7.0;-4.2969;-32.1365;2.597;171.2695;-34.9914;-5.2306;5.0;55.43004;;;;NaN;;;;0 / 0;1157;2017-10-03 21:14:41:414
-0.876006;2.285243;5.006248;0.732416;5.623657;8.000529;0.132704;-0.791397;-1.881982;-11.5919;-40.8439;-18.7128;7.0;-4.2969;-32.1365;2.597;171.2695;-34.9914;-5.2306;5.0;55.43004;;;;NaN;;;;0 / 0;1167;2017-10-03 21:14:41:424
-0.876006;2.285243;5.006248;1.077507;5.192826;8.248874;-0.216554;-0.333076;-2.107848;-53.1605;-32.916;15.2139;7.0;-4.2969;-32.1365;2.597;171.2695;-34.9914;-5.2306;5.0;55.43004;;;;NaN;;;;0 / 0;1176;2017-10-03 21:14:41:433
4.249421;1.688228;6.069862;1.077507;5.192826;8.248874;-0.216554;-0.333076;-2.107848;-53.1605;-32.916;15.2139;7.0;-4.2969;-32.1365;2.597;171.2695;-34.9914;-5.2306;5.0;55.43004;;;;NaN;;;;0 / 0;1195;2017-10-03 21:14:41:452
4.249421;1.688228;6.069862;1.077507;5.192826;8.248874;-0.216554;-0.333076;-2.107848;-53.1605;-32.916;15.2139;7.0;-4.2969;-32.1365;2.597;171.2695;-34.9914;-5.2306;5.0;55.43004;;;;NaN;;;;0 / 0;1197;2017-10-03 21:14:41:454
4.249421;1.688228;6.069862;1.077507;5.192826;8.248874;-0.216554;-0.333076;-2.107848;-53.1605;-32.916;15.2139;7.0;-4.2969;-32.1365;2.597;171.2695;-34.9914;-5.2306;5.0;55.43004;;;;NaN;;;;0 / 0;1207;2017-10-03 21:14:41:464
4.249421;1.688228;6.069862;1.077507;5.192826;8.248874;-0.216554;-0.333076;-2.107848;-53.1605;-32.916;15.2139;7.0;-4.3213;-32.1365;2.6215;171.2961;-31.9731;-7.4421;5.0;55.43004;;;;NaN;;;;0 / 0;1217;2017-10-03 21:14:41:474
4.249421;1.688228;6.069862;1.077507;5.192826;8.248874;-1.427377;1.033463;-3.189688;-53.1605;-32.916;15.2139;7.0;-4.3213;-32.1365;2.6215;171.2961;-31.9731;-7.4421;5.0;55.43004;;;;NaN;;;;0 / 0;1227;2017-10-03 21:14:41:484
5.789201;-1.398518;7.657508;1.841705;4.319565;8.60929;-1.427377;1.033463;-3.189688;-101.3797;-70.4071;40.1226;7.0;-4.3213;-32.1365;2.6215;171.2961;-31.9731;-7.4421;5.0;55.43004;;;;NaN;;;;0 / 0;1236;2017-10-03 21:14:41:493
5.789201;-1.398518;7.657508;1.841705;4.319565;8.60929;-1.427377;1.033463;-3.189688;-101.3797;-70.4071;40.1226;7.0;-4.3213;-32.1365;2.6215;171.2961;-31.9731;-7.4421;5.0;55.43004;;;;NaN;;;;0 / 0;1246;2017-10-03 21:14:41:503
5.789201;-1.398518;7.657508;1.841705;4.319565;8.60929;-1.427377;1.033463;-3.189688;-101.3797;-70.4071;40.1226;7.0;-4.3213;-32.1365;2.6215;171.2961;-31.9731;-7.4421;5.0;55.43004;;;;NaN;;;;0 / 0;1259;2017-10-03 21:14:41:516
4.331971;0.844752;11.456108;1.841705;4.319565;8.60929;-1.427377;1.033463;-3.189688;-101.3797;-70.4071;40.1226;7.0;-4.3213;-32.1365;2.6215;171.2961;-31.9731;-7.4421;5.0;55.43004;;;;NaN;;;;0 / 0;1266;2017-10-03 21:14:41:523
4.331971;0.844752;11.456108;1.841705;4.319565;8.60929;-1.427377;1.033463;-3.189688;-101.3797;-70.4071;40.1226;7.0;-4.3213;-32.1365;2.6215;171.2961;-31.9731;-7.4421;5.0;65.19878;;;;NaN;;;;0 / 0;1276;2017-10-03 21:14:41:533
4.331971;0.844752;11.456108;1.841705;4.319565;8.60929;-1.08197;-3.415571;-2.277318;-101.3797;-70.4071;40.1226;7.0;-4.3213;-32.1884;2.7191;171.2969;-26.1341;-12.0748;5.0;65.19878;;;;NaN;;;;0 / 0;1287;2017-10-03 21:14:41:544
6.879136;-0.161427;8.15641;3.299625;4.248462;8.1996;-1.08197;-3.415571;-2.277318;-17.5596;-192.6397;-40.0098;7.0;-4.3213;-32.1884;2.7191;171.2969;-26.1341;-12.0748;5.0;65.19878;;;;NaN;;;;0 / 0;1297;2017-10-03 21:14:41:554
6.879136;-0.161427;8.15641;3.299625;4.248462;8.1996;-1.08197;-3.415571;-2.277318;-17.5596;-192.6397;-40.0098;7.0;-4.3213;-32.1884;2.7191;171.2969;-26.1341;-12.0748;5.0;65.19878;;;;NaN;;;;0 / 0;1306;2017-10-03 21:14:41:563
6.879136;-0.161427;8.15641;3.299625;4.248462;8.1996;-1.08197;-3.415571;-2.277318;-17.5596;-192.6397;-40.0098;7.0;-4.3213;-32.1884;2.7191;171.2969;-26.1341;-12.0748;5.0;65.19878;;;;NaN;;;;0 / 0;1316;2017-10-03 21:14:41:573
6.972459;0.459514;2.637366;3.299625;4.248462;8.1996;-1.08197;-3.415571;-2.277318;-17.5596;-192.6397;-40.0098;7.0;-4.3213;-32.1884;2.7191;171.2969;-26.1341;-12.0748;5.0;65.19878;;;;NaN;;;;0 / 0;1327;2017-10-03 21:14:41:584
6.972459;0.459514;2.637366;3.299625;4.248462;8.1996;-1.08197;-3.415571;-2.277318;-17.5596;-192.6397;-40.0098;1.0;-4.3213;-32.1884;2.7191;171.2969;-26.1341;-12.0748;5.0;65.19878;;;;NaN;;;;0 / 0;1336;2017-10-03 21:14:41:593
6.972459;0.459514;2.637366;4.325217;4.320454;7.667893;0.728293;-1.813635;-0.733518;0.6172;-140.2092;-24.0973;1.0;-4.303;-32.1869;2.8885;170.3026;-26.1399;-29.426;5.0;65.19878;;;;NaN;;;;0 / 0;1346;2017-10-03 21:14:41:603
6.972459;0.459514;2.637366;4.325217;4.320454;7.667893;0.728293;-1.813635;-0.733518;0.6172;-140.2092;-24.0973;1.0;-4.303;-32.1869;2.8885;170.3026;-26.1399;-29.426;5.0;65.19878;;;;NaN;;;;0 / 0;1356;2017-10-03 21:14:41:613
3.557892;0.556422;8.454308;4.325217;4.320454;7.667893;0.728293;-1.813635;-0.733518;0.6172;-140.2092;-24.0973;1.0;-4.303;-32.1869;2.8885;170.3026;-26.1399;-29.426;5.0;65.19878;;;;NaN;;;;0 / 0;1366;2017-10-03 21:14:41:623
3.557892;0.556422;8.454308;4.325217;4.320454;7.667893;0.728293;-1.813635;-0.733518;0.6172;-140.2092;-24.0973;1.0;-4.303;-32.1869;2.8885;170.3026;-26.1399;-29.426;5.0;65.19878;;;;NaN;;;;0 / 0;1377;2017-10-03 21:14:41:634
3.557892;0.556422;8.454308;4.325217;4.320454;7.667893;0.728293;-1.813635;-0.733518;0.6172;-140.2092;-24.0973;1.0;-4.303;-32.1869;2.8885;170.3026;-26.1399;-29.426;5.0;65.19878;;;;NaN;;;;0 / 0;1386;2017-10-03 21:14:41:643
3.557892;0.556422;8.454308;4.719898;3.75697;7.731633;0.728293;-1.813635;-0.733518;0.6172;-140.2092;-24.0973;1.0;-4.303;-32.1869;2.8885;170.3026;-26.1399;-29.426;5.0;65.19878;;;;NaN;;;;0 / 0;1397;2017-10-03 21:14:41:654
5.876542;-1.449956;2.784522;4.719898;3.75697;7.731633;-1.12933;-1.40768;-2.097962;-56.6899;-37.151;27.8025;1.0;-4.303;-32.1869;2.8885;170.3026;-26.1399;-29.426;5.0;65.19878;;;;NaN;;;;0 / 0;1407;2017-10-03 21:14:41:664
5.876542;-1.449956;2.784522;4.719898;3.75697;7.731633;-1.12933;-1.40768;-2.097962;-56.6899;-37.151;27.8025;1.0;-4.303;-32.135;2.8885;170.4994;-22.5261;-31.4026;5.0;65.19878;;;;NaN;;;;0 / 0;1416;2017-10-03 21:14:41:673
5.876542;-1.449956;2.784522;4.719898;3.75697;7.731633;-1.12933;-1.40768;-2.097962;-56.6899;-37.151;27.8025;1.0;-4.303;-32.135;2.8885;170.4994;-22.5261;-31.4026;5.0;65.19878;;;;NaN;;;;0 / 0;1426;2017-10-03 21:14:41:683
6.375443;-4.217259;8.109748;4.719898;3.75697;7.731633;-1.12933;-1.40768;-2.097962;-56.6899;-37.151;27.8025;1.0;-4.303;-32.135;2.8885;170.4994;-22.5261;-31.4026;5.0;65.19878;;;;NaN;;;;0 / 0;1436;2017-10-03 21:14:41:693
6.375443;-4.217259;8.109748;4.719898;3.75697;7.731633;-1.12933;-1.40768;-2.097962;-56.6899;-37.151;27.8025;1.0;-4.303;-32.135;2.8885;170.4994;-22.5261;-31.4026;5.0;65.19878;;;;NaN;;;;0 / 0;1446;2017-10-03 21:14:41:703
6.375443;-4.217259;8.109748;4.719898;3.75697;7.731633;-1.12933;-1.40768;-2.097962;-56.6899;-37.151;27.8025;1.0;-4.303;-32.135;2.8885;170.4994;-22.5261;-31.4026;5.0;65.19878;;;;NaN;;;;0 / 0;1456;2017-10-03 21:14:41:713
6.375443;-4.217259;8.109748;5.330378;2.550435;7.826413;-0.827678;-3.420625;-2.099425;-99.472;-45.2475;78.5526;1.0;-4.303;-32.135;2.8885;170.4994;-22.5261;-31.4026;5.0;65.19878;;;;NaN;;;;0 / 0;1466;2017-10-03 21:14:41:723
6.820512;-5.424443;7.545036;5.330378;2.550435;7.826413;-0.827678;-3.420625;-2.099425;-99.472;-45.2475;78.5526;1.0;-4.303;-32.135;2.8885;170.4994;-22.5261;-31.4026;5.0;65.19878;;;;NaN;;;;0 / 0;1476;2017-10-03 21:14:41:733
6.820512;-5.424443;7.545036;5.330378;2.550435;7.826413;-0.827678;-3.420625;-2.099425;-99.472;-45.2475;78.5526;1.0;-4.5135;-32.0724;2.7679;169.3011;-15.0743;-34.2578;5.0;65.19878;;;;NaN;;;;0 / 0;1486;2017-10-03 21:14:41:743
6.820512;-5.424443;7.545036;5.330378;2.550435;7.826413;-0.827678;-3.420625;-2.099425;-99.472;-45.2475;78.5526;1.0;-4.5135;-32.0724;2.7679;169.3011;-15.0743;-34.2578;5.0;65.19878;;;;NaN;;;;0 / 0;1496;2017-10-03 21:14:41:753
6.820512;-5.424443;7.545036;5.330378;2.550435;7.826413;-0.827678;-3.420625;-2.099425;-99.472;-45.2475;78.5526;1.0;-4.5135;-32.0724;2.7679;169.3011;-15.0743;-34.2578;5.0;65.19878;;;;NaN;;;;0 / 0;1509;2017-10-03 21:14:41:766
9.331774;-7.024037;12.00167;6.914696;1.030431;6.877178;-2.37805;-1.901112;-1.124408;-90.0335;-183.1085;134.1856;1.0;-4.5135;-32.0724;2.7679;169.3011;-15.0743;-34.2578;5.0;65.19878;;;;NaN;;;;0 / 0;1516;2017-10-03 21:14:41:773
9.331774;-7.024037;12.00167;6.914696;1.030431;6.877178;-2.37805;-1.901112;-1.124408;-90.0335;-183.1085;134.1856;1.0;-4.5135;-32.0724;2.7679;169.3011;-15.0743;-34.2578;5.0;65.19878;;;;NaN;;;;0 / 0;1526;2017-10-03 21:14:41:783
9.038652;-6.943883;8.847938;6.914696;1.030431;6.877178;-2.37805;-1.901112;-1.124408;-90.0335;-183.1085;134.1856;1.0;-4.5135;-32.0724;2.7679;169.3011;-15.0743;-34.2578;5.0;65.19878;;;;NaN;;;;0 / 0;1537;2017-10-03 21:14:41:794
9.038652;-6.943883;8.847938;6.914696;1.030431;6.877178;-2.37805;-1.901112;-1.124408;-90.0335;-183.1085;134.1856;1.0;-4.9026;-32.016;2.8168;169.8803;-6.0315;-45.1559;5.0;65.19878;;;;NaN;;;;0 / 0;1547;2017-10-03 21:14:41:804
9.038652;-6.943883;8.847938;6.914696;1.030431;6.877178;-2.37805;-1.901112;-1.124408;-90.0335;-183.1085;134.1856;1.0;-4.9026;-32.016;2.8168;169.8803;-6.0315;-45.1559;5.0;65.19878;;;;NaN;;;;0 / 0;1556;2017-10-03 21:14:41:813
9.038652;-6.943883;8.847938;6.914696;1.030431;6.877178;-2.37805;-1.901112;-1.124408;-90.0335;-183.1085;134.1856;1.0;-4.9026;-32.016;2.8168;169.8803;-6.0315;-45.1559;5.0;65.19878;;;;NaN;;;;0 / 0;1567;2017-10-03 21:14:41:824
9.038652;-6.943883;8.847938;6.914696;1.030431;6.877178;-2.37805;-1.901112;-1.124408;-90.0335;-183.1085;134.1856;1.0;-4.9026;-32.016;2.8168;169.8803;-6.0315;-45.1559;5.0;65.19878;;;;NaN;;;;0 / 0;1576;2017-10-03 21:14:41:833
9.038652;-6.943883;8.847938;6.914696;1.030431;6.877178;-2.37805;-1.901112;-1.124408;-90.0335;-183.1085;134.1856;1.0;-4.9026;-32.016;2.8168;169.8803;-6.0315;-45.1559;5.0;65.19878;;;;NaN;;;;0 / 0;1586;2017-10-03 21:14:41:843
9.038652;-6.943883;8.847938;6.914696;1.030431;6.877178;-2.37805;-1.901112;-1.124408;-90.0335;-183.1085;134.1856;1.0;-4.9026;-32.016;2.8168;169.8803;-6.0315;-45.1559;5.0;65.19878;;;;NaN;;;;0 / 0;1596;2017-10-03 21:14:41:853
9.038652;-6.943883;8.847938;6.914696;1.030431;6.877178;-2.37805;-1.901112;-1.124408;-90.0335;-183.1085;134.1856;1.0;-4.9026;-32.016;2.8168;169.8803;-6.0315;-45.1559;5.0;65.19878;;;;NaN;;;;0 / 0;1608;2017-10-03 21:14:41:865
9.038652;-6.943883;8.847938;6.914696;1.030431;6.877178;-2.37805;-1.901112;-1.124408;-90.0335;-183.1085;134.1856;1.0;-4.9026;-32.016;2.8168;169.8803;-6.0315;-45.1559;5.0;65.19878;;;;NaN;;;;0 / 0;1617;2017-10-03 21:14:41:874
9.038652;-6.943883;8.847938;6.914696;1.030431;6.877178;-2.37805;-1.901112;-1.124408;-90.0335;-183.1085;134.1856;1.0;-4.9026;-32.016;2.8168;169.8803;-6.0315;-45.1559;5.0;65.19878;;;;NaN;;;;0 / 0;1627;2017-10-03 21:14:41:884
9.038652;-6.943883;8.847938;6.914696;1.030431;6.877178;-2.37805;-1.901112;-1.124408;-90.0335;-183.1085;134.1856;1.0;-4.9026;-32.016;2.8168;169.8803;-6.0315;-45.1559;5.0;65.19878;;;;NaN;;;;0 / 0;1637;2017-10-03 21:14:41:894
9.038652;-6.943883;8.847938;6.914696;1.030431;6.877178;-2.37805;-1.901112;-1.124408;-90.0335;-183.1085;134.1856;1.0;-4.9026;-32.016;2.8168;169.8803;-6.0315;-45.1559;5.0;65.19878;;;;NaN;;;;0 / 0;1646;2017-10-03 21:14:41:903
9.038652;-6.943883;8.847938;6.914696;1.030431;6.877178;-2.37805;-1.901112;-1.124408;-90.0335;-183.1085;134.1856;1.0;-4.9026;-32.016;2.8168;169.8803;-6.0315;-45.1559;5.0;65.19878;;;;NaN;;;;0 / 0;1656;2017-10-03 21:14:41:913
9.038652;-6.943883;8.847938;6.914696;1.030431;6.877178;-2.37805;-1.901112;-1.124408;-90.0335;-183.1085;134.1856;1.0;-4.9026;-32.016;2.8168;169.8803;-6.0315;-45.1559;5.0;65.19878;;;;NaN;;;;0 / 0;1667;2017-10-03 21:14:41:924
9.038652;-6.943883;8.847938;6.914696;1.030431;6.877178;-2.37805;-1.901112;-1.124408;-90.0335;-183.1085;134.1856;1.0;-4.9026;-32.016;2.8168;169.8803;-6.0315;-45.1559;5.0;65.19878;;;;NaN;;;;0 / 0;1677;2017-10-03 21:14:41:934
9.038652;-6.943883;8.847938;6.914696;1.030431;6.877178;-2.37805;-1.901112;-1.124408;-90.0335;-183.1085;134.1856;1.0;-4.9026;-32.016;2.8168;169.8803;-6.0315;-45.1559;5.0;65.19878;;;;NaN;;;;0 / 0;1687;2017-10-03 21:14:41:944
9.038652;-6.943883;8.847938;6.914696;1.030431;6.877178;-2.37805;-1.901112;-1.124408;-90.0335;-183.1085;134.1856;1.0;-4.9026;-32.016;2.8168;169.8803;-6.0315;-45.1559;5.0;65.19878;;;;NaN;;;;0 / 0;1697;2017-10-03 21:14:41:954
9.038652;-6.943883;8.847938;6.914696;1.030431;6.877178;-2.37805;-1.901112;-1.124408;-90.0335;-183.1085;134.1856;1.0;-4.9026;-32.016;2.8168;169.8803;-6.0315;-45.1559;5.0;65.19878;;;;NaN;;;;0 / 0;1706;2017-10-03 21:14:41:963
9.038652;-6.943883;8.847938;6.914696;1.030431;6.877178;-2.37805;-1.901112;-1.124408;-90.0335;-183.1085;134.1856;1.0;-4.9026;-32.016;2.8168;169.8803;-6.0315;-45.1559;5.0;65.19878;;;;NaN;;;;0 / 0;1716;2017-10-03 21:14:41:973
9.038652;-6.943883;8.847938;6.914696;1.030431;6.877178;-2.37805;-1.901112;-1.124408;-90.0335;-183.1085;134.1856;1.0;-4.9026;-32.016;2.8168;169.8803;-6.0315;-45.1559;5.0;65.19878;;;;NaN;;;;0 / 0;1726;2017-10-03 21:14:41:983
9.038652;-6.943883;8.847938;6.914696;1.030431;6.877178;-2.37805;-1.901112;-1.124408;-90.0335;-183.1085;134.1856;1.0;-4.9026;-32.016;2.8168;169.8803;-6.0315;-45.1559;5.0;65.19878;;;;NaN;;;;0 / 0;1736;2017-10-03 21:14:41:993
9.038652;-6.943883;8.847938;6.914696;1.030431;6.877178;-2.37805;-1.901112;-1.124408;-90.0335;-183.1085;134.1856;1.0;-4.9026;-32.016;2.8168;169.8803;-6.0315;-45.1559;5.0;65.19878;;;;NaN;;;;0 / 0;1746;2017-10-03 21:14:42:003
9.038652;-6.943883;8.847938;6.914696;1.030431;6.877178;-2.37805;-1.901112;-1.124408;-90.0335;-183.1085;134.1856;1.0;-4.9026;-32.016;2.8168;169.8803;-6.0315;-45.1559;5.0;65.19878;;;;NaN;;;;0 / 0;1756;2017-10-03 21:14:42:013
9.038652;-6.943883;8.847938;6.914696;1.030431;6.877178;-2.37805;-1.901112;-1.124408;-90.0335;-183.1085;134.1856;1.0;-4.9026;-32.016;2.8168;169.8803;-6.0315;-45.1559;5.0;65.19878;;;;NaN;;;;0 / 0;1766;2017-10-03 21:14:42:023
9.038652;-6.943883;8.847938;6.914696;1.030431;6.877178;-2.37805;-1.901112;-1.124408;-90.0335;-183.1085;134.1856;1.0;-4.9026;-32.016;2.8168;169.8803;-6.0315;-45.1559;5.0;65.19878;;;;NaN;;;;0 / 0;1776;2017-10-03 21:14:42:033
9.038652;-6.943883;8.847938;6.914696;1.030431;6.877178;-2.37805;-1.901112;-1.124408;-90.0335;-183.1085;134.1856;1.0;-4.9026;-32.016;2.8168;169.8803;-6.0315;-45.1559;5.0;65.19878;;;;NaN;;;;0 / 0;1786;2017-10-03 21:14:42:043
9.038652;-6.943883;8.847938;6.914696;1.030431;6.877178;-2.37805;-1.901112;-1.124408;-90.0335;-183.1085;134.1856;1.0;-4.9026;-32.016;2.8168;169.8803;-6.0315;-45.1559;5.0;65.19878;;;;NaN;;;;0 / 0;1796;2017-10-03 21:14:42:053
9.038652;-6.943883;8.847938;6.914696;1.030431;6.877178;-2.37805;-1.901112;-1.124408;-90.0335;-183.1085;134.1856;1.0;-4.9026;-32.016;2.8168;169.8803;-6.0315;-45.1559;5.0;65.19878;;;;NaN;;;;0 / 0;1807;2017-10-03 21:14:42:064
9.038652;-6.943883;8.847938;6.914696;1.030431;6.877178;-2.37805;-1.901112;-1.124408;-90.0335;-183.1085;134.1856;1.0;-4.9026;-32.016;2.8168;169.8803;-6.0315;-45.1559;5.0;65.19878;;;;NaN;;;;0 / 0;1817;2017-10-03 21:14:42:074
9.038652;-6.943883;8.847938;6.914696;1.030431;6.877178;-2.37805;-1.901112;-1.124408;-90.0335;-183.1085;134.1856;1.0;-4.9026;-32.016;2.8168;169.8803;-6.0315;-45.1559;5.0;65.19878;;;;NaN;;;;0 / 0;1827;2017-10-03 21:14:42:084
9.038652;-6.943883;8.847938;6.914696;1.030431;6.877178;-2.37805;-1.901112;-1.124408;-90.0335;-183.1085;134.1856;1.0;-4.9026;-32.016;2.8168;169.8803;-6.0315;-45.1559;5.0;65.19878;;;;NaN;;;;0 / 0;1837;2017-10-03 21:14:42:094
9.038652;-6.943883;8.847938;6.914696;1.030431;6.877178;-2.37805;-1.901112;-1.124408;-90.0335;-183.1085;134.1856;1.0;-4.9026;-32.016;2.8168;169.8803;-6.0315;-45.1559;5.0;65.19878;;;;NaN;;;;0 / 0;1846;2017-10-03 21:14:42:103
9.038652;-6.943883;8.847938;6.914696;1.030431;6.877178;-2.37805;-1.901112;-1.124408;-90.0335;-183.1085;134.1856;1.0;-4.9026;-32.016;2.8168;169.8803;-6.0315;-45.1559;5.0;65.19878;;;;NaN;;;;0 / 0;1856;2017-10-03 21:14:42:113
9.038652;-6.943883;8.847938;6.914696;1.030431;6.877178;-2.37805;-1.901112;-1.124408;-90.0335;-183.1085;134.1856;1.0;-4.9026;-32.016;2.8168;169.8803;-6.0315;-45.1559;5.0;65.19878;;;;NaN;;;;0 / 0;1866;2017-10-03 21:14:42:123
9.038652;-6.943883;8.847938;6.914696;1.030431;6.877178;-2.37805;-1.901112;-1.124408;-90.0335;-183.1085;134.1856;1.0;-4.9026;-32.016;2.8168;169.8803;-6.0315;-45.1559;5.0;65.19878;;;;NaN;;;;0 / 0;1876;2017-10-03 21:14:42:133
9.038652;-6.943883;8.847938;6.914696;1.030431;6.877178;-2.37805;-1.901112;-1.124408;-90.0335;-183.1085;134.1856;1.0;-4.9026;-32.016;2.8168;169.8803;-6.0315;-45.1559;5.0;65.19878;;;;NaN;;;;0 / 0;1887;2017-10-03 21:14:42:144
9.038652;-6.943883;8.847938;6.914696;1.030431;6.877178;-2.37805;-1.901112;-1.124408;-90.0335;-183.1085;134.1856;1.0;-4.9026;-32.016;2.8168;169.8803;-6.0315;-45.1559;5.0;65.19878;;;;NaN;;;;0 / 0;1897;2017-10-03 21:14:42:154
9.038652;-6.943883;8.847938;6.914696;1.030431;6.877178;-2.37805;-1.901112;-1.124408;-90.0335;-183.1085;134.1856;1.0;-4.9026;-32.016;2.8168;169.8803;-6.0315;-45.1559;5.0;65.19878;;;;NaN;;;;0 / 0;1907;2017-10-03 21:14:42:164
9.038652;-6.943883;8.847938;6.914696;1.030431;6.877178;-2.37805;-1.901112;-1.124408;-90.0335;-183.1085;134.1856;1.0;-4.9026;-32.016;2.8168;169.8803;-6.0315;-45.1559;5.0;65.19878;;;;NaN;;;;0 / 0;1917;2017-10-03 21:14:42:174
9.038652;-6.943883;8.847938;6.914696;1.030431;6.877178;-2.37805;-1.901112;-1.124408;-90.0335;-183.1085;134.1856;1.0;-4.9026;-32.016;2.8168;169.8803;-6.0315;-45.1559;5.0;65.19878;;;;NaN;;;;0 / 0;1927;2017-10-03 21:14:42:184
9.038652;-6.943883;8.847938;6.914696;1.030431;6.877178;-2.37805;-1.901112;-1.124408;-90.0335;-183.1085;134.1856;1.0;-4.9026;-32.016;2.8168;169.8803;-6.0315;-45.1559;5.0;65.19878;;;;NaN;;;;0 / 0;1937;2017-10-03 21:14:42:194
9.038652;-6.943883;8.847938;6.914696;1.030431;6.877178;-2.37805;-1.901112;-1.124408;-90.0335;-183.1085;134.1856;1.0;-4.9026;-32.016;2.8168;169.8803;-6.0315;-45.1559;5.0;65.19878;;;;NaN;;;;0 / 0;1947;2017-10-03 21:14:42:204
9.038652;-6.943883;8.847938;6.914696;1.030431;6.877178;-2.37805;-1.901112;-1.124408;-90.0335;-183.1085;134.1856;1.0;-4.9026;-32.016;2.8168;169.8803;-6.0315;-45.1559;5.0;65.19878;;;;NaN;;;;0 / 0;1956;2017-10-03 21:14:42:213
9.038652;-6.943883;8.847938;6.914696;1.030431;6.877178;-2.37805;-1.901112;-1.124408;-90.0335;-183.1085;134.1856;1.0;-4.9026;-32.016;2.8168;169.8803;-6.0315;-45.1559;5.0;65.19878;;;;NaN;;;;0 / 0;1966;2017-10-03 21:14:42:223
9.038652;-6.943883;8.847938;6.914696;1.030431;6.877178;-2.37805;-1.901112;-1.124408;-90.0335;-183.1085;134.1856;1.0;-4.9026;-32.016;2.8168;169.8803;-6.0315;-45.1559;5.0;65.19878;;;;NaN;;;;0 / 0;1977;2017-10-03 21:14:42:234
9.038652;-6.943883;8.847938;6.914696;1.030431;6.877178;-2.37805;-1.901112;-1.124408;-90.0335;-183.1085;134.1856;1.0;-4.9026;-32.016;2.8168;169.8803;-6.0315;-45.1559;5.0;65.19878;;;;NaN;;;;0 / 0;1987;2017-10-03 21:14:42:244
9.038652;-6.943883;8.847938;6.914696;1.030431;6.877178;-2.37805;-1.901112;-1.124408;-90.0335;-183.1085;134.1856;1.0;-4.9026;-32.016;2.8168;169.8803;-6.0315;-45.1559;5.0;65.19878;;;;NaN;;;;0 / 0;1996;2017-10-03 21:14:42:253
9.038652;-6.943883;8.847938;6.914696;1.030431;6.877178;-2.37805;-1.901112;-1.124408;-90.0335;-183.1085;134.1856;1.0;-4.9026;-32.016;2.8168;169.8803;-6.0315;-45.1559;5.0;65.19878;;;;NaN;;;;0 / 0;2006;2017-10-03 21:14:42:263
9.038652;-6.943883;8.847938;6.914696;1.030431;6.877178;-2.37805;-1.901112;-1.124408;-90.0335;-183.1085;134.1856;1.0;-4.9026;-32.016;2.8168;169.8803;-6.0315;-45.1559;5.0;65.19878;;;;NaN;;;;0 / 0;2017;2017-10-03 21:14:42:274
9.038652;-6.943883;8.847938;6.914696;1.030431;6.877178;-2.37805;-1.901112;-1.124408;-90.0335;-183.1085;134.1856;1.0;-4.9026;-32.016;2.8168;169.8803;-6.0315;-45.1559;5.0;65.19878;;;;NaN;;;;0 / 0;2026;2017-10-03 21:14:42:283
9.038652;-6.943883;8.847938;6.914696;1.030431;6.877178;-2.37805;-1.901112;-1.124408;-90.0335;-183.1085;134.1856;1.0;-4.9026;-32.016;2.8168;169.8803;-6.0315;-45.1559;5.0;65.19878;;;;NaN;;;;0 / 0;2036;2017-10-03 21:14:42:293
9.038652;-6.943883;8.847938;6.914696;1.030431;6.877178;-2.37805;-1.901112;-1.124408;-90.0335;-183.1085;134.1856;1.0;-4.9026;-32.016;2.8168;169.8803;-6.0315;-45.1559;5.0;65.19878;;;;NaN;;;;0 / 0;2046;2017-10-03 21:14:42:303
9.038652;-6.943883;8.847938;6.914696;1.030431;6.877178;-2.37805;-1.901112;-1.124408;-90.0335;-183.1085;134.1856;1.0;-4.9026;-32.016;2.8168;169.8803;-6.0315;-45.1559;5.0;65.19878;;;;NaN;;;;0 / 0;2057;2017-10-03 21:14:42:314
9.038652;-6.943883;8.847938;6.914696;1.030431;6.877178;-2.37805;-1.901112;-1.124408;-90.0335;-183.1085;134.1856;1.0;-4.9026;-32.016;2.8168;169.8803;-6.0315;-45.1559;5.0;65.19878;;;;NaN;;;;0 / 0;2066;2017-10-03 21:14:42:323
9.038652;-6.943883;8.847938;6.914696;1.030431;6.877178;-2.37805;-1.901112;-1.124408;-90.0335;-183.1085;134.1856;1.0;-4.9026;-32.016;2.8168;169.8803;-6.0315;-45.1559;5.0;65.19878;;;;NaN;;;;0 / 0;2077;2017-10-03 21:14:42:334
9.038652;-6.943883;8.847938;6.914696;1.030431;6.877178;-2.37805;-1.901112;-1.124408;-90.0335;-183.1085;134.1856;1.0;-4.9026;-32.016;2.8168;169.8803;-6.0315;-45.1559;5.0;65.19878;;;;NaN;;;;0 / 0;2086;2017-10-03 21:14:42:343
9.038652;-6.943883;8.847938;6.914696;1.030431;6.877178;-2.37805;-1.901112;-1.124408;-90.0335;-183.1085;134.1856;1.0;-4.9026;-32.016;2.8168;169.8803;-6.0315;-45.1559;5.0;65.19878;;;;NaN;;;;0 / 0;2096;2017-10-03 21:14:42:353
9.038652;-6.943883;8.847938;6.914696;1.030431;6.877178;-2.37805;-1.901112;-1.124408;-90.0335;-183.1085;134.1856;1.0;-4.9026;-32.016;2.8168;169.8803;-6.0315;-45.1559;5.0;65.19878;;;;NaN;;;;0 / 0;2107;2017-10-03 21:14:42:364
9.038652;-6.943883;8.847938;6.914696;1.030431;6.877178;-2.37805;-1.901112;-1.124408;-90.0335;-183.1085;134.1856;1.0;-4.9026;-32.016;2.8168;169.8803;-6.0315;-45.1559;5.0;65.19878;;;;NaN;;;;0 / 0;2116;2017-10-03 21:14:42:373
9.038652;-6.943883;8.847938;6.914696;1.030431;6.877178;-2.37805;-1.901112;-1.124408;-90.0335;-183.1085;134.1856;1.0;-4.9026;-32.016;2.8168;169.8803;-6.0315;-45.1559;5.0;65.19878;;;;NaN;;;;0 / 0;2126;2017-10-03 21:14:42:383
9.038652;-6.943883;8.847938;6.914696;1.030431;6.877178;-2.37805;-1.901112;-1.124408;-90.0335;-183.1085;134.1856;1.0;-4.9026;-32.016;2.8168;169.8803;-6.0315;-45.1559;5.0;65.19878;;;;NaN;;;;0 / 0;2136;2017-10-03 21:14:42:393
9.038652;-6.943883;8.847938;6.914696;1.030431;6.877178;-2.37805;-1.901112;-1.124408;-90.0335;-183.1085;134.1856;1.0;-4.9026;-32.016;2.8168;169.8803;-6.0315;-45.1559;5.0;65.19878;;;;NaN;;;;0 / 0;2147;2017-10-03 21:14:42:404
9.038652;-6.943883;8.847938;6.914696;1.030431;6.877178;-2.37805;-1.901112;-1.124408;-90.0335;-183.1085;134.1856;1.0;-4.9026;-32.016;2.8168;169.8803;-6.0315;-45.1559;5.0;65.19878;;;;NaN;;;;0 / 0;2157;2017-10-03 21:14:42:414
9.038652;-6.943883;8.847938;6.914696;1.030431;6.877178;-2.37805;-1.901112;-1.124408;-90.0335;-183.1085;134.1856;1.0;-4.9026;-32.016;2.8168;169.8803;-6.0315;-45.1559;5.0;65.19878;;;;NaN;;;;0 / 0;2166;2017-10-03 21:14:42:423
9.038652;-6.943883;8.847938;6.914696;1.030431;6.877178;-2.37805;-1.901112;-1.124408;-90.0335;-183.1085;134.1856;1.0;-4.9026;-32.016;2.8168;169.8803;-6.0315;-45.1559;5.0;65.19878;;;;NaN;;;;0 / 0;2177;2017-10-03 21:14:42:434
9.038652;-6.943883;8.847938;6.914696;1.030431;6.877178;-2.37805;-1.901112;-1.124408;-90.0335;-183.1085;134.1856;1.0;-4.9026;-32.016;2.8168;169.8803;-6.0315;-45.1559;5.0;65.19878;;;;NaN;;;;0 / 0;2187;2017-10-03 21:14:42:444
9.038652;-6.943883;8.847938;6.914696;1.030431;6.877178;-2.37805;-1.901112;-1.124408;-90.0335;-183.1085;134.1856;1.0;-4.9026;-32.016;2.8168;169.8803;-6.0315;-45.1559;5.0;65.19878;;;;NaN;;;;0 / 0;2196;2017-10-03 21:14:42:453
9.038652;-6.943883;8.847938;6.914696;1.030431;6.877178;-2.37805;-1.901112;-1.124408;-90.0335;-183.1085;134.1856;1.0;-4.9026;-32.016;2.8168;169.8803;-6.0315;-45.1559;5.0;65.19878;;;;NaN;;;;0 / 0;2206;2017-10-03 21:14:42:463
9.038652;-6.943883;8.847938;6.914696;1.030431;6.877178;-2.37805;-1.901112;-1.124408;-90.0335;-183.1085;134.1856;1.0;-4.9026;-32.016;2.8168;169.8803;-6.0315;-45.1559;5.0;65.19878;;;;NaN;;;;0 / 0;2217;2017-10-03 21:14:42:474
9.038652;-6.943883;8.847938;6.914696;1.030431;6.877178;-2.37805;-1.901112;-1.124408;-90.0335;-183.1085;134.1856;1.0;-4.9026;-32.016;2.8168;169.8803;-6.0315;-45.1559;5.0;65.19878;;;;NaN;;;;0 / 0;2226;2017-10-03 21:14:42:483
9.038652;-6.943883;8.847938;6.914696;1.030431;6.877178;-2.37805;-1.901112;-1.124408;-90.0335;-183.1085;134.1856;1.0;-4.9026;-32.016;2.8168;169.8803;-6.0315;-45.1559;5.0;65.19878;;;;NaN;;;;0 / 0;2237;2017-10-03 21:14:42:494
9.038652;-6.943883;8.847938;6.914696;1.030431;6.877178;-2.37805;-1.901112;-1.124408;-90.0335;-183.1085;134.1856;1.0;-4.9026;-32.016;2.8168;169.8803;-6.0315;-45.1559;5.0;65.19878;;;;NaN;;;;0 / 0;2247;2017-10-03 21:14:42:504
9.038652;-6.943883;8.847938;6.914696;1.030431;6.877178;-2.37805;-1.901112;-1.124408;-90.0335;-183.1085;134.1856;1.0;-4.9026;-32.016;2.8168;169.8803;-6.0315;-45.1559;5.0;65.19878;;;;NaN;;;;0 / 0;2256;2017-10-03 21:14:42:513
9.038652;-6.943883;8.847938;6.914696;1.030431;6.877178;-2.37805;-1.901112;-1.124408;-90.0335;-183.1085;134.1856;1.0;-4.9026;-32.016;2.8168;169.8803;-6.0315;-45.1559;5.0;65.19878;;;;NaN;;;;0 / 0;2267;2017-10-03 21:14:42:524
9.038652;-6.943883;8.847938;6.914696;1.030431;6.877178;-2.37805;-1.901112;-1.124408;-90.0335;-183.1085;134.1856;1.0;-4.9026;-32.016;2.8168;169.8803;-6.0315;-45.1559;5.0;65.19878;;;;NaN;;;;0 / 0;2276;2017-10-03 21:14:42:533
9.038652;-6.943883;8.847938;6.914696;1.030431;6.877178;-2.37805;-1.901112;-1.124408;-90.0335;-183.1085;134.1856;1.0;-4.9026;-32.016;2.8168;169.8803;-6.0315;-45.1559;5.0;65.19878;;;;NaN;;;;0 / 0;2287;2017-10-03 21:14:42:544
9.038652;-6.943883;8.847938;6.914696;1.030431;6.877178;-2.37805;-1.901112;-1.124408;-90.0335;-183.1085;134.1856;1.0;-4.9026;-32.016;2.8168;169.8803;-6.0315;-45.1559;5.0;65.19878;;;;NaN;;;;0 / 0;2296;2017-10-03 21:14:42:553
9.038652;-6.943883;8.847938;6.914696;1.030431;6.877178;-2.37805;-1.901112;-1.124408;-90.0335;-183.1085;134.1856;1.0;-4.9026;-32.016;2.8168;169.8803;-6.0315;-45.1559;5.0;65.19878;;;;NaN;;;;0 / 0;2306;2017-10-03 21:14:42:563
9.038652;-6.943883;8.847938;6.914696;1.030431;6.877178;-2.37805;-1.901112;-1.124408;-90.0335;-183.1085;134.1856;1.0;-4.9026;-32.016;2.8168;169.8803;-6.0315;-45.1559;5.0;65.19878;;;;NaN;;;;0 / 0;2316;2017-10-03 21:14:42:573
9.038652;-6.943883;8.847938;6.914696;1.030431;6.877178;-2.37805;-1.901112;-1.124408;-90.0335;-183.1085;134.1856;1.0;-4.9026;-32.016;2.8168;169.8803;-6.0315;-45.1559;5.0;65.19878;;;;NaN;;;;0 / 0;2326;2017-10-03 21:14:42:583
9.038652;-6.943883;8.847938;6.914696;1.030431;6.877178;-2.37805;-1.901112;-1.124408;-90.0335;-183.1085;134.1856;1.0;-4.9026;-32.016;2.8168;169.8803;-6.0315;-45.1559;5.0;65.19878;;;;NaN;;;;0 / 0;2336;2017-10-03 21:14:42:593
9.038652;-6.943883;8.847938;6.914696;1.030431;6.877178;-2.37805;-1.901112;-1.124408;-90.0335;-183.1085;134.1856;1.0;-4.9026;-32.016;2.8168;169.8803;-6.0315;-45.1559;5.0;65.19878;;;;NaN;;;;0 / 0;2347;2017-10-03 21:14:42:604
9.038652;-6.943883;8.847938;6.914696;1.030431;6.877178;-2.37805;-1.901112;-1.124408;-90.0335;-183.1085;134.1856;1.0;-4.9026;-32.016;2.8168;169.8803;-6.0315;-45.1559;5.0;65.19878;;;;NaN;;;;0 / 0;2356;2017-10-03 21:14:42:613
9.038652;-6.943883;8.847938;6.914696;1.030431;6.877178;-2.37805;-1.901112;-1.124408;-90.0335;-183.1085;134.1856;1.0;-4.9026;-32.016;2.8168;169.8803;-6.0315;-45.1559;5.0;65.19878;;;;NaN;;;;0 / 0;2367;2017-10-03 21:14:42:624
9.038652;-6.943883;8.847938;6.914696;1.030431;6.877178;-2.37805;-1.901112;-1.124408;-90.0335;-183.1085;134.1856;1.0;-4.9026;-32.016;2.8168;169.8803;-6.0315;-45.1559;5.0;65.19878;;;;NaN;;;;0 / 0;2376;2017-10-03 21:14:42:633
9.038652;-6.943883;8.847938;6.914696;1.030431;6.877178;-2.37805;-1.901112;-1.124408;-90.0335;-183.1085;134.1856;1.0;-4.9026;-32.016;2.8168;169.8803;-6.0315;-45.1559;5.0;65.19878;;;;NaN;;;;0 / 0;2387;2017-10-03 21:14:42:644
9.038652;-6.943883;8.847938;6.914696;1.030431;6.877178;-2.37805;-1.901112;-1.124408;-90.0335;-183.1085;134.1856;1.0;-4.9026;-32.016;2.8168;169.8803;-6.0315;-45.1559;5.0;65.19878;;;;NaN;;;;0 / 0;2397;2017-10-03 21:14:42:654
9.038652;-6.943883;8.847938;6.914696;1.030431;6.877178;-2.37805;-1.901112;-1.124408;-90.0335;-183.1085;134.1856;1.0;-4.9026;-32.016;2.8168;169.8803;-6.0315;-45.1559;5.0;65.19878;;;;NaN;;;;0 / 0;2407;2017-10-03 21:14:42:664
9.038652;-6.943883;8.847938;6.914696;1.030431;6.877178;-2.37805;-1.901112;-1.124408;-90.0335;-183.1085;134.1856;1.0;-4.9026;-32.016;2.8168;169.8803;-6.0315;-45.1559;5.0;65.19878;;;;NaN;;;;0 / 0;2416;2017-10-03 21:14:42:673
9.038652;-6.943883;8.847938;6.914696;1.030431;6.877178;-2.37805;-1.901112;-1.124408;-90.0335;-183.1085;134.1856;1.0;-4.9026;-32.016;2.8168;169.8803;-6.0315;-45.1559;5.0;65.19878;;;;NaN;;;;0 / 0;2427;2017-10-03 21:14:42:684
9.038652;-6.943883;8.847938;6.914696;1.030431;6.877178;-2.37805;-1.901112;-1.124408;-90.0335;-183.1085;134.1856;1.0;-4.9026;-32.016;2.8168;169.8803;-6.0315;-45.1559;5.0;65.19878;;;;NaN;;;;0 / 0;2437;2017-10-03 21:14:42:694
9.038652;-6.943883;8.847938;6.914696;1.030431;6.877178;-2.37805;-1.901112;-1.124408;-90.0335;-183.1085;134.1856;1.0;-4.9026;-32.016;2.8168;169.8803;-6.0315;-45.1559;5.0;65.19878;;;;NaN;;;;0 / 0;2446;2017-10-03 21:14:42:703
9.038652;-6.943883;8.847938;6.914696;1.030431;6.877178;-2.37805;-1.901112;-1.124408;-90.0335;-183.1085;134.1856;1.0;-4.9026;-32.016;2.8168;169.8803;-6.0315;-45.1559;5.0;65.19878;;;;NaN;;;;0 / 0;2456;2017-10-03 21:14:42:713
9.038652;-6.943883;8.847938;6.914696;1.030431;6.877178;-2.37805;-1.901112;-1.124408;-90.0335;-183.1085;134.1856;1.0;-4.9026;-32.016;2.8168;169.8803;-6.0315;-45.1559;5.0;65.19878;;;;NaN;;;;0 / 0;2467;2017-10-03 21:14:42:724
9.038652;-6.943883;8.847938;6.914696;1.030431;6.877178;-2.37805;-1.901112;-1.124408;-90.0335;-183.1085;134.1856;1.0;-4.9026;-32.016;2.8168;169.8803;-6.0315;-45.1559;5.0;65.19878;;;;NaN;;;;0 / 0;2477;2017-10-03 21:14:42:734
9.038652;-6.943883;8.847938;6.914696;1.030431;6.877178;-2.37805;-1.901112;-1.124408;-90.0335;-183.1085;134.1856;1.0;-4.9026;-32.016;2.8168;169.8803;-6.0315;-45.1559;5.0;65.19878;;;;NaN;;;;0 / 0;2486;2017-10-03 21:14:42:743
12.54175;-7.482259;9.684226;8.283158;-0.653718;5.208874;-1.661732;-3.2824;4.046132;-34.7686;-226.2631;182.5796;0.0;-5.5222;-31.813;2.9434;169.8916;3.8222;-57.8362;0.0;65.19878;;;;NaN;;;;0 / 0;2497;2017-10-03 21:14:42:754
12.54175;-7.482259;9.684226;8.283158;-0.653718;5.208874;-1.661732;-3.2824;4.046132;-34.7686;-226.2631;182.5796;0.0;-5.5222;-31.813;2.9434;169.8916;3.8222;-57.8362;0.0;65.19878;;;;NaN;;;;0 / 0;2507;2017-10-03 21:14:42:764
12.54175;-7.482259;9.684226;8.283158;-0.653718;5.208874;-1.661732;-3.2824;4.046132;-34.7686;-226.2631;182.5796;0.0;-5.5222;-31.813;2.9434;169.8916;3.8222;-57.8362;0.0;65.19878;;;;NaN;;;;0 / 0;2516;2017-10-03 21:14:42:773
7.550324;-10.948262;0.258887;8.283158;-0.653718;5.208874;-1.661732;-3.2824;4.046132;-34.7686;-226.2631;182.5796;0.0;-5.5222;-31.813;2.9434;169.8916;3.8222;-57.8362;0.0;65.19878;;;;NaN;;;;0 / 0;2527;2017-10-03 21:14:42:784
7.550324;-10.948262;0.258887;8.283158;-0.653718;5.208874;-1.661732;-3.2824;4.046132;-34.7686;-226.2631;182.5796;0.0;-5.5222;-31.813;2.9434;169.8916;3.8222;-57.8362;0.0;65.19878;;;;NaN;;;;0 / 0;2537;2017-10-03 21:14:42:794
7.550324;-10.948262;0.258887;8.283158;-0.653718;5.208874;-1.661732;-3.2824;4.046132;-34.7686;-226.2631;182.5796;0.0;-5.5222;-31.813;2.9434;169.8916;3.8222;-57.8362;0.0;65.19878;;;;NaN;;;;0 / 0;2550;2017-10-03 21:14:42:807
7.550324;-10.948262;0.258887;8.283158;-0.653718;5.208874;-1.661732;-3.2824;4.046132;-34.7686;-226.2631;182.5796;0.0;-5.5222;-31.813;2.9434;169.8916;3.8222;-57.8362;0.0;65.19878;;;;NaN;;;;0 / 0;2556;2017-10-03 21:14:42:813
7.550324;-10.948262;0.258887;8.283158;-0.653718;5.208874;-1.661732;-3.2824;4.046132;-34.7686;-226.2631;182.5796;0.0;-5.5222;-31.813;2.9434;169.8916;3.8222;-57.8362;0.0;65.19878;;;;NaN;;;;0 / 0;2566;2017-10-03 21:14:42:823
7.550324;-10.948262;0.258887;8.283158;-0.653718;5.208874;-1.661732;-3.2824;4.046132;-34.7686;-226.2631;182.5796;0.0;-5.5222;-31.813;2.9434;169.8916;3.8222;-57.8362;0.0;65.19878;;;;NaN;;;;0 / 0;2577;2017-10-03 21:14:42:834
7.550324;-10.948262;0.258887;8.283158;-0.653718;5.208874;-1.661732;-3.2824;4.046132;-34.7686;-226.2631;182.5796;0.0;-5.5222;-31.813;2.9434;169.8916;3.8222;-57.8362;0.0;65.19878;;;;NaN;;;;0 / 0;2586;2017-10-03 21:14:42:843
7.550324;-10.948262;0.258887;8.283158;-0.653718;5.208874;-1.661732;-3.2824;4.046132;-34.7686;-226.2631;182.5796;0.0;-5.5222;-31.813;2.9434;169.8916;3.8222;-57.8362;0.0;65.19878;;;;NaN;;;;0 / 0;2596;2017-10-03 21:14:42:853
7.550324;-10.948262;0.258887;8.283158;-0.653718;5.208874;-1.661732;-3.2824;4.046132;-34.7686;-226.2631;182.5796;0.0;-5.5222;-31.813;2.9434;169.8916;3.8222;-57.8362;0.0;65.19878;;;;NaN;;;;0 / 0;2607;2017-10-03 21:14:42:864
7.550324;-10.948262;0.258887;8.283158;-0.653718;5.208874;-1.661732;-3.2824;4.046132;-34.7686;-226.2631;182.5796;0.0;-5.5222;-31.813;2.9434;169.8916;3.8222;-57.8362;0.0;65.19878;;;;NaN;;;;0 / 0;2616;2017-10-03 21:14:42:873
7.550324;-10.948262;0.258887;8.283158;-0.653718;5.208874;-1.661732;-3.2824;4.046132;-34.7686;-226.2631;182.5796;0.0;-5.5222;-31.813;2.9434;169.8916;3.8222;-57.8362;0.0;65.19878;;;;NaN;;;;0 / 0;2626;2017-10-03 21:14:42:883
7.550324;-10.948262;0.258887;8.283158;-0.653718;5.208874;-1.661732;-3.2824;4.046132;-34.7686;-226.2631;182.5796;0.0;-5.5222;-31.813;2.9434;169.8916;3.8222;-57.8362;0.0;65.19878;;;;NaN;;;;0 / 0;2637;2017-10-03 21:14:42:894
7.550324;-10.948262;0.258887;8.283158;-0.653718;5.208874;-1.661732;-3.2824;4.046132;-34.7686;-226.2631;182.5796;0.0;-5.5222;-31.813;2.9434;169.8916;3.8222;-57.8362;0.0;65.19878;;;;NaN;;;;0 / 0;2646;2017-10-03 21:14:42:903
7.550324;-10.948262;0.258887;8.283158;-0.653718;5.208874;-1.661732;-3.2824;4.046132;-34.7686;-226.2631;182.5796;0.0;-5.5222;-31.813;2.9434;169.8916;3.8222;-57.8362;0.0;65.19878;;;;NaN;;;;0 / 0;2657;2017-10-03 21:14:42:914
7.550324;-10.948262;0.258887;8.283158;-0.653718;5.208874;-1.661732;-3.2824;4.046132;-34.7686;-226.2631;182.5796;0.0;-5.5222;-31.813;2.9434;169.8916;3.8222;-57.8362;0.0;65.19878;;;;NaN;;;;0 / 0;2666;2017-10-03 21:14:42:923
7.550324;-10.948262;0.258887;8.283158;-0.653718;5.208874;-1.661732;-3.2824;4.046132;-34.7686;-226.2631;182.5796;0.0;-5.5222;-31.813;2.9434;169.8916;3.8222;-57.8362;0.0;65.19878;;;;NaN;;;;0 / 0;2677;2017-10-03 21:14:42:934
7.550324;-10.948262;0.258887;8.283158;-0.653718;5.208874;-1.661732;-3.2824;4.046132;-34.7686;-226.2631;182.5796;0.0;-5.5222;-31.813;2.9434;169.8916;3.8222;-57.8362;0.0;65.19878;;;;NaN;;;;0 / 0;2686;2017-10-03 21:14:42:943
7.550324;-10.948262;0.258887;8.283158;-0.653718;5.208874;-1.661732;-3.2824;4.046132;-34.7686;-226.2631;182.5796;0.0;-5.5222;-31.813;2.9434;169.8916;3.8222;-57.8362;0.0;65.19878;;;;NaN;;;;0 / 0;2697;2017-10-03 21:14:42:954
7.550324;-10.948262;0.258887;8.283158;-0.653718;5.208874;-1.661732;-3.2824;4.046132;-34.7686;-226.2631;182.5796;0.0;-5.5222;-31.813;2.9434;169.8916;3.8222;-57.8362;0.0;65.19878;;;;NaN;;;;0 / 0;2707;2017-10-03 21:14:42:964
7.550324;-10.948262;0.258887;8.283158;-0.653718;5.208874;-1.661732;-3.2824;4.046132;-34.7686;-226.2631;182.5796;0.0;-5.5222;-31.813;2.9434;169.8916;3.8222;-57.8362;0.0;65.19878;;;;NaN;;;;0 / 0;2717;2017-10-03 21:14:42:974
7.550324;-10.948262;0.258887;8.283158;-0.653718;5.208874;-1.661732;-3.2824;4.046132;-34.7686;-226.2631;182.5796;0.0;-5.5222;-31.813;2.9434;169.8916;3.8222;-57.8362;0.0;65.19878;;;;NaN;;;;0 / 0;2727;2017-10-03 21:14:42:984
7.550324;-10.948262;0.258887;8.283158;-0.653718;5.208874;-1.661732;-3.2824;4.046132;-34.7686;-226.2631;182.5796;0.0;-5.5222;-31.813;2.9434;169.8916;3.8222;-57.8362;0.0;65.19878;;;;NaN;;;;0 / 0;2737;2017-10-03 21:14:42:994
7.550324;-10.948262;0.258887;8.283158;-0.653718;5.208874;-1.661732;-3.2824;4.046132;-34.7686;-226.2631;182.5796;0.0;-5.5222;-31.813;2.9434;169.8916;3.8222;-57.8362;0.0;65.19878;;;;NaN;;;;0 / 0;2746;2017-10-03 21:14:43:003
7.550324;-10.948262;0.258887;8.283158;-0.653718;5.208874;-1.661732;-3.2824;4.046132;-34.7686;-226.2631;182.5796;0.0;-5.5222;-31.813;2.9434;169.8916;3.8222;-57.8362;0.0;65.19878;;;;NaN;;;;0 / 0;2756;2017-10-03 21:14:43:013
7.550324;-10.948262;0.258887;8.283158;-0.653718;5.208874;-1.661732;-3.2824;4.046132;-34.7686;-226.2631;182.5796;0.0;-5.5222;-31.813;2.9434;169.8916;3.8222;-57.8362;0.0;65.19878;;;;NaN;;;;0 / 0;2766;2017-10-03 21:14:43:023
7.550324;-10.948262;0.258887;8.283158;-0.653718;5.208874;-1.661732;-3.2824;4.046132;-34.7686;-226.2631;182.5796;0.0;-5.5222;-31.813;2.9434;169.8916;3.8222;-57.8362;0.0;65.19878;;;;NaN;;;;0 / 0;2776;2017-10-03 21:14:43:033
8.10666;-11.682866;0.062675;7.237782;-6.604978;-0.398959;-0.284878;-1.222212;0.751481;34.905;-30.8982;125.3013;0.0;-22.4258;-21.7499;11.3052;162.7458;42.3393;-93.155;0.0;65.19878;;;;NaN;;;;0 / 0;2787;2017-10-03 21:14:43:044
8.10666;-11.682866;0.062675;7.237782;-6.604978;-0.398959;-0.284878;-1.222212;0.751481;34.905;-30.8982;125.3013;0.0;-22.4258;-21.7499;11.3052;162.7458;42.3393;-93.155;0.0;67.91086;;;;NaN;;;;0 / 0;2797;2017-10-03 21:14:43:054
8.10666;-11.682866;0.062675;7.237782;-6.604978;-0.398959;-0.284878;-1.222212;0.751481;34.905;-30.8982;125.3013;0.0;-22.4258;-21.7499;11.3052;162.7458;42.3393;-93.155;0.0;67.91086;;;;NaN;;;;0 / 0;2814;2017-10-03 21:14:43:071
8.10666;-11.682866;0.062675;7.237782;-6.604978;-0.398959;-0.284878;-1.222212;0.751481;34.905;-30.8982;125.3013;0.0;-22.4258;-21.7499;11.3052;162.7458;42.3393;-93.155;0.0;67.91086;;;;NaN;;;;0 / 0;2816;2017-10-03 21:14:43:073
8.10666;-11.682866;0.062675;7.237782;-6.604978;-0.398959;-0.284878;-1.222212;0.751481;34.905;-30.8982;125.3013;0.0;-22.4258;-21.7499;11.3052;162.7458;42.3393;-93.155;0.0;67.91086;;;;NaN;;;;0 / 0;2835;2017-10-03 21:14:43:092
8.10666;-11.682866;0.062675;7.237782;-6.604978;-0.398959;-0.284878;-1.222212;0.751481;34.905;-30.8982;125.3013;0.0;-22.4258;-21.7499;11.3052;162.7458;42.3393;-93.155;0.0;67.91086;;;;NaN;;;;0 / 0;2838;2017-10-03 21:14:43:095
8.10666;-11.682866;0.062675;7.237782;-6.604978;-0.398959;-0.284878;-1.222212;0.751481;34.905;-30.8982;125.3013;0.0;-22.4258;-21.7499;11.3052;162.7458;42.3393;-93.155;0.0;67.91086;;;;NaN;;;;0 / 0;2846;2017-10-03 21:14:43:103
1.34813;-10.875294;0.686011;0.60859;-9.786866;-0.131262;0.886519;4.429361;0.255021;-0.1818;9.3992;197.8749;0.0;-22.5754;-14.2502;17.0441;156.3734;86.36;-102.1713;0.0;67.91086;;;;NaN;;;;0 / 0;2856;2017-10-03 21:14:43:113
1.34813;-10.875294;0.686011;0.60859;-9.786866;-0.131262;0.886519;4.429361;0.255021;-0.1818;9.3992;197.8749;0.0;-22.5754;-14.2502;17.0441;156.3734;86.36;-102.1713;0.0;67.91086;;;;NaN;;;;0 / 0;2867;2017-10-03 21:14:43:124
1.34813;-10.875294;0.686011;0.60859;-9.786866;-0.131262;0.886519;4.429361;0.255021;-0.1818;9.3992;197.8749;0.0;-22.5754;-14.2502;17.0441;156.3734;86.36;-102.1713;0.0;67.91086;;;;NaN;;;;0 / 0;2876;2017-10-03 21:14:43:133
1.34813;-10.875294;0.686011;0.60859;-9.786866;-0.131262;0.886519;4.429361;0.255021;-0.1818;9.3992;197.8749;0.0;-22.5754;-14.2502;17.0441;156.3734;86.36;-102.1713;0.0;67.91086;;;;NaN;;;;0 / 0;2905;2017-10-03 21:14:43:162
1.34813;-10.875294;0.686011;0.60859;-9.786866;-0.131262;0.886519;4.429361;0.255021;-0.1818;9.3992;197.8749;0.0;-22.5754;-14.2502;17.0441;156.3734;86.36;-102.1713;0.0;67.91086;;;;NaN;;;;0 / 0;2906;2017-10-03 21:14:43:163
1.34813;-10.875294;0.686011;0.60859;-9.786866;-0.131262;0.886519;4.429361;0.255021;-0.1818;9.3992;197.8749;0.0;-22.5754;-14.2502;17.0441;156.3734;86.36;-102.1713;0.0;67.91086;;;;NaN;;;;0 / 0;2906;2017-10-03 21:14:43:163
1.34813;-10.875294;0.686011;0.60859;-9.786866;-0.131262;0.886519;4.429361;0.255021;-0.1818;9.3992;197.8749;0.0;-22.5754;-14.2502;17.0441;156.3734;86.36;-102.1713;0.0;67.91086;;;;NaN;;;;0 / 0;2916;2017-10-03 21:14:43:173
1.34813;-10.875294;0.686011;0.60859;-9.786866;-0.131262;0.886519;4.429361;0.255021;-0.1818;9.3992;197.8749;0.0;-22.5754;-14.2502;17.0441;156.3734;86.36;-102.1713;0.0;67.91086;;;;NaN;;;;0 / 0;2927;2017-10-03 21:14:43:184
2.061188;-19.250172;-1.487863;-1.344915;-9.709932;0.280713;0.971678;-0.161004;0.751251;31.0206;-172.3743;201.7304;0.0;-22.0749;-10.3027;18.4097;330.882;81.9465;78.2104;0.0;67.91086;;;;NaN;;;;0 / 0;2937;2017-10-03 21:14:43:194
2.061188;-19.250172;-1.487863;-1.344915;-9.709932;0.280713;0.971678;-0.161004;0.751251;31.0206;-172.3743;201.7304;0.0;-22.0749;-10.3027;18.4097;330.882;81.9465;78.2104;0.0;67.91086;;;;NaN;;;;0 / 0;2949;2017-10-03 21:14:43:206
2.061188;-19.250172;-1.487863;-1.344915;-9.709932;0.280713;0.971678;-0.161004;0.751251;31.0206;-172.3743;201.7304;0.0;-22.0749;-10.3027;18.4097;330.882;81.9465;78.2104;0.0;67.91086;;;;NaN;;;;0 / 0;2959;2017-10-03 21:14:43:216
-6.481185;-13.530126;-0.833428;-2.356297;-9.503084;0.55644;3.440699;-7.940145;1.242937;-2.1542;-145.1794;121.1888;0.0;-22.4258;-5.2841;19.5221;328.988;75.7068;76.713;0.0;67.91086;;;;NaN;;;;0 / 0;2968;2017-10-03 21:14:43:225
-6.481185;-13.530126;-0.833428;-2.356297;-9.503084;0.55644;3.440699;-7.940145;1.242937;-2.1542;-145.1794;121.1888;0.0;-22.4258;-5.2841;19.5221;328.988;75.7068;76.713;0.0;67.91086;;;;NaN;;;;0 / 0;2977;2017-10-03 21:14:43:234
-6.481185;-13.530126;-0.833428;-2.356297;-9.503084;0.55644;3.440699;-7.940145;1.242937;-2.1542;-145.1794;121.1888;0.0;-22.4258;-5.2841;19.5221;328.988;75.7068;76.713;0.0;67.91086;;;;NaN;;;;0 / 0;2987;2017-10-03 21:14:43:244
-6.481185;-13.530126;-0.833428;-2.356297;-9.503084;0.55644;3.440699;-7.940145;1.242937;-2.1542;-145.1794;121.1888;0.0;-22.4258;-5.2841;19.5221;328.988;75.7068;76.713;0.0;67.91086;;;;NaN;;;;0 / 0;2996;2017-10-03 21:14:43:253
-1.024352;-12.503606;0.776938;-2.356297;-9.503084;0.55644;3.440699;-7.940145;1.242937;-2.1542;-145.1794;121.1888;0.0;-22.4258;-5.2841;19.5221;328.988;75.7068;76.713;0.0;67.91086;;;;NaN;;;;0 / 0;3006;2017-10-03 21:14:43:263
-1.024352;-12.503606;0.776938;-2.356297;-9.503084;0.55644;3.440699;-7.940145;1.242937;-2.1542;-145.1794;121.1888;0.0;-22.4258;-5.2841;19.5221;328.988;75.7068;76.713;0.0;67.91086;;;;NaN;;;;0 / 0;3016;2017-10-03 21:14:43:273
-1.024352;-12.503606;0.776938;-2.356297;-9.503084;0.55644;3.440699;-7.940145;1.242937;-2.1542;-145.1794;121.1888;0.0;-22.142;0.0778;20.9641;328.8272;75.7068;76.713;0.0;67.91086;;;;NaN;;;;0 / 0;3026;2017-10-03 21:14:43:283
-1.024352;-12.503606;0.776938;-2.356297;-9.503084;0.55644;3.440699;-7.940145;1.242937;-2.1542;-145.1794;121.1888;0.0;-22.142;0.0778;20.9641;328.8272;75.7068;76.713;0.0;67.91086;;;;NaN;;;;0 / 0;3036;2017-10-03 21:14:43:293
-0.47879;-11.821644;0.860694;-2.258905;-9.539794;0.245103;-3.249266;-0.211057;-0.3118;-49.7019;-5.8375;-10.0558;0.0;-22.142;0.0778;20.9641;328.8272;75.7068;76.713;0.0;67.91086;;;;NaN;;;;0 / 0;3046;2017-10-03 21:14:43:303
-0.47879;-11.821644;0.860694;-2.258905;-9.539794;0.245103;-3.249266;-0.211057;-0.3118;-49.7019;-5.8375;-10.0558;0.0;-22.142;0.0778;20.9641;328.8272;75.7068;76.713;0.0;67.91086;;;;NaN;;;;0 / 0;3057;2017-10-03 21:14:43:314
-0.47879;-11.821644;0.860694;-2.258905;-9.539794;0.245103;-3.249266;-0.211057;-0.3118;-49.7019;-5.8375;-10.0558;0.0;-22.142;0.0778;20.9641;328.8272;75.7068;76.713;0.0;67.91086;;;;NaN;;;;0 / 0;3066;2017-10-03 21:14:43:323
-0.47879;-11.821644;0.860694;-2.258905;-9.539794;0.245103;-3.249266;-0.211057;-0.3118;-49.7019;-5.8375;-10.0558;0.0;-22.142;0.0778;20.9641;328.8272;75.7068;76.713;0.0;67.91086;;;;NaN;;;;0 / 0;3077;2017-10-03 21:14:43:334
1.935563;-9.10938;2.572745;-2.258905;-9.539794;0.245103;-3.249266;-0.211057;-0.3118;-49.7019;-5.8375;-10.0558;0.0;-22.142;0.0778;20.9641;328.8272;75.7068;76.713;0.0;67.91086;;;;NaN;;;;0 / 0;3086;2017-10-03 21:14:43:343
1.935563;-9.10938;2.572745;-2.258905;-9.539794;0.245103;-3.249266;-0.211057;-0.3118;-49.7019;-5.8375;-10.0558;0.0;-21.6629;5.6183;22.3892;322.0205;76.6031;83.8074;0.0;69.56424;;;;NaN;;;;0 / 0;3096;2017-10-03 21:14:43:353
1.935563;-9.10938;2.572745;-2.201384;-9.555428;-0.134399;0.200856;-0.235018;0.544378;-31.1046;42.463;-5.681;0.0;-21.6629;5.6183;22.3892;322.0205;76.6031;83.8074;0.0;69.56424;;;;NaN;;;;0 / 0;3106;2017-10-03 21:14:43:363
1.935563;-9.10938;2.572745;-2.201384;-9.555428;-0.134399;0.200856;-0.235018;0.544378;-31.1046;42.463;-5.681;0.0;-21.6629;5.6183;22.3892;322.0205;76.6031;83.8074;0.0;69.56424;;;;NaN;;;;0 / 0;3116;2017-10-03 21:14:43:373
-2.148986;-12.062122;1.512733;-2.201384;-9.555428;-0.134399;0.200856;-0.235018;0.544378;-31.1046;42.463;-5.681;0.0;-21.6629;5.6183;22.3892;322.0205;76.6031;83.8074;0.0;69.56424;;;;NaN;;;;0 / 0;3127;2017-10-03 21:14:43:384
-2.148986;-12.062122;1.512733;-2.201384;-9.555428;-0.134399;0.200856;-0.235018;0.544378;-31.1046;42.463;-5.681;0.0;-21.6629;5.6183;22.3892;322.0205;76.6031;83.8074;0.0;69.56424;;;;NaN;;;;0 / 0;3136;2017-10-03 21:14:43:393
-2.148986;-12.062122;1.512733;-2.201384;-9.555428;-0.134399;0.200856;-0.235018;0.544378;-31.1046;42.463;-5.681;0.0;-21.6629;5.6183;22.3892;322.0205;76.6031;83.8074;0.0;69.56424;;;;NaN;;;;0 / 0;3146;2017-10-03 21:14:43:403
-1.467025;-11.014072;0.654899;-2.09767;-9.579484;-0.060448;0.851899;1.675051;1.801196;7.885;14.2409;-9.922;0.0;-21.6629;5.6183;22.3892;322.0205;76.6031;83.8074;0.0;69.56424;;;;NaN;;;;0 / 0;3157;2017-10-03 21:14:43:414
-1.467025;-11.014072;0.654899;-2.09767;-9.579484;-0.060448;0.851899;1.675051;1.801196;7.885;14.2409;-9.922;0.0;-19.4962;11.0199;24.437;309.5053;77.6436;91.6506;0.0;69.56424;;;;NaN;;;;0 / 0;3166;2017-10-03 21:14:43:423
-1.467025;-11.014072;0.654899;-2.09767;-9.579484;-0.060448;0.851899;1.675051;1.801196;7.885;14.2409;-9.922;0.0;-19.4962;11.0199;24.437;309.5053;77.6436;91.6506;0.0;69.56424;;;;NaN;;;;0 / 0;3176;2017-10-03 21:14:43:433
-1.467025;-11.014072;0.654899;-2.09767;-9.579484;-0.060448;0.851899;1.675051;1.801196;7.885;14.2409;-9.922;0.0;-19.4962;11.0199;24.437;309.5053;77.6436;91.6506;0.0;69.56424;;;;NaN;;;;0 / 0;3187;2017-10-03 21:14:43:444
-1.743408;-11.637394;0.604651;-2.09767;-9.579484;-0.060448;0.851899;1.675051;1.801196;7.885;14.2409;-9.922;0.0;-19.4962;11.0199;24.437;309.5053;77.6436;91.6506;0.0;69.56424;;;;NaN;;;;0 / 0;3197;2017-10-03 21:14:43:454
-1.743408;-11.637394;0.604651;-2.09767;-9.579484;-0.060448;0.851899;1.675051;1.801196;7.885;14.2409;-9.922;0.0;-19.4962;11.0199;24.437;309.5053;77.6436;91.6506;0.0;69.56424;;;;NaN;;;;0 / 0;3207;2017-10-03 21:14:43:464
-1.743408;-11.637394;0.604651;-1.99257;-9.59939;0.227536;-1.405913;0.785964;0.340785;17.8656;-55.9345;-13.1708;0.0;-19.4962;11.0199;24.437;309.5053;77.6436;91.6506;0.0;69.56424;;;;NaN;;;;0 / 0;3216;2017-10-03 21:14:43:473
-1.743408;-11.637394;0.604651;-1.99257;-9.59939;0.227536;-1.405913;0.785964;0.340785;17.8656;-55.9345;-13.1708;0.0;-16.1484;13.3484;25.911;311.3101;78.1994;83.4855;0.0;69.56424;;;;NaN;;;;0 / 0;3226;2017-10-03 21:14:43:483
-0.672607;-12.126728;1.267463;-1.99257;-9.59939;0.227536;-1.405913;0.785964;0.340785;17.8656;-55.9345;-13.1708;0.0;-16.1484;13.3484;25.911;311.3101;78.1994;83.4855;0.0;69.56424;;;;NaN;;;;0 / 0;3237;2017-10-03 21:14:43:494
-0.672607;-12.126728;1.267463;-1.99257;-9.59939;0.227536;-1.405913;0.785964;0.340785;17.8656;-55.9345;-13.1708;0.0;-16.1484;13.3484;25.911;311.3101;78.1994;83.4855;0.0;69.56424;;;;NaN;;;;0 / 0;3246;2017-10-03 21:14:43:503
-0.672607;-12.126728;1.267463;-1.99257;-9.59939;0.227536;-1.405913;0.785964;0.340785;17.8656;-55.9345;-13.1708;0.0;-16.1484;13.3484;25.911;311.3101;78.1994;83.4855;0.0;69.56424;;;;NaN;;;;0 / 0;3256;2017-10-03 21:14:43:513
-0.672607;-12.126728;1.267463;-1.99257;-9.59939;0.227536;-1.405913;0.785964;0.340785;17.8656;-55.9345;-13.1708;0.0;-16.1484;13.3484;25.911;311.3101;78.1994;83.4855;0.0;69.56424;;;;NaN;;;;0 / 0;3266;2017-10-03 21:14:43:523
0.284516;-11.821644;1.39907;-1.917971;-9.614106;0.246418;-0.344021;0.194401;0.59198;0.7396;-0.7921;-8.469;0.0;-16.1484;13.3484;25.911;311.3101;78.1994;83.4855;0.0;69.56424;;;;NaN;;;;0 / 0;3276;2017-10-03 21:14:43:533
0.284516;-11.821644;1.39907;-1.917971;-9.614106;0.246418;-0.344021;0.194401;0.59198;0.7396;-0.7921;-8.469;0.0;-16.1484;13.3484;25.911;311.3101;78.1994;83.4855;0.0;69.56424;;;;NaN;;;;0 / 0;3286;2017-10-03 21:14:43:543
0.070359;-11.76183;0.860694;-1.917971;-9.614106;0.246418;-0.344021;0.194401;0.59198;0.7396;-0.7921;-8.469;0.0;-16.272;13.4964;26.1627;311.981;78.6275;82.6788;0.0;69.56424;;;;NaN;;;;0 / 0;3296;2017-10-03 21:14:43:553
0.070359;-11.76183;0.860694;-1.917971;-9.614106;0.246418;-0.344021;0.194401;0.59198;0.7396;-0.7921;-8.469;0.0;-16.272;13.4964;26.1627;311.981;78.6275;82.6788;0.0;69.56424;;;;NaN;;;;0 / 0;3306;2017-10-03 21:14:43:563
0.070359;-11.76183;0.860694;-1.917971;-9.614106;0.246418;-0.344021;0.194401;0.59198;0.7396;-0.7921;-8.469;0.0;-16.272;13.4964;26.1627;311.981;78.6275;82.6788;0.0;69.56424;;;;NaN;;;;0 / 0;3316;2017-10-03 21:14:43:573
0.070359;-11.76183;0.860694;-1.917971;-9.614106;0.246418;-0.344021;0.194401;0.59198;0.7396;-0.7921;-8.469;0.0;-16.272;13.4964;26.1627;311.981;78.6275;82.6788;0.0;69.56424;;;;NaN;;;;0 / 0;3328;2017-10-03 21:14:43:585
-0.737213;-11.696018;1.067664;-1.893436;-9.61898;0.245979;0.440523;0.304126;0.56185;3.0617;20.797;-2.4488;0.0;-16.272;13.4964;26.1627;311.981;78.6275;82.6788;0.0;69.56424;;;;NaN;;;;0 / 0;3336;2017-10-03 21:14:43:593
-0.737213;-11.696018;1.067664;-1.893436;-9.61898;0.245979;0.440523;0.304126;0.56185;3.0617;20.797;-2.4488;0.0;-16.272;13.4964;26.1627;311.981;78.6275;82.6788;0.0;69.56424;;;;NaN;;;;0 / 0;3347;2017-10-03 21:14:43:604
-0.737213;-11.696018;1.067664;-1.893436;-9.61898;0.245979;0.440523;0.304126;0.56185;3.0617;20.797;-2.4488;0.0;-16.272;13.4964;26.1627;311.981;78.6275;82.6788;0.0;69.56424;;;;NaN;;;;0 / 0;3357;2017-10-03 21:14:43:614
-1.039916;-11.564426;1.243537;-1.893436;-9.61898;0.245979;0.440523;0.304126;0.56185;3.0617;20.797;-2.4488;0.0;-16.1423;13.3652;26.445;312.0268;78.7728;82.5981;0.0;69.56424;;;;NaN;;;;0 / 0;3367;2017-10-03 21:14:43:624
-1.039916;-11.564426;1.243537;-1.893436;-9.61898;0.245979;0.440523;0.304126;0.56185;3.0617;20.797;-2.4488;0.0;-16.1423;13.3652;26.445;312.0268;78.7728;82.5981;0.0;69.56424;;;;NaN;;;;0 / 0;3376;2017-10-03 21:14:43:633
-1.039916;-11.564426;1.243537;-1.855961;-9.626346;0.243407;-0.495347;0.483617;0.618754;2.1918;18.3298;-5.3837;0.0;-16.1423;13.3652;26.445;312.0268;78.7728;82.5981;0.0;69.56424;;;;NaN;;;;0 / 0;3386;2017-10-03 21:14:43:643
-1.039916;-11.564426;1.243537;-1.855961;-9.626346;0.243407;-0.495347;0.483617;0.618754;2.1918;18.3298;-5.3837;0.0;-16.1423;13.3652;26.445;312.0268;78.7728;82.5981;0.0;69.56424;;;;NaN;;;;0 / 0;3397;2017-10-03 21:14:43:654
-1.039916;-11.564426;1.243537;-1.855961;-9.626346;0.243407;-0.495347;0.483617;0.618754;2.1918;18.3298;-5.3837;0.0;-16.1423;13.3652;26.445;312.0268;78.7728;82.5981;0.0;69.56424;;;;NaN;;;;0 / 0;3408;2017-10-03 21:14:43:665
-1.200225;-11.505802;0.758994;-1.855961;-9.626346;0.243407;-0.495347;0.483617;0.618754;2.1918;18.3298;-5.3837;0.0;-16.1423;13.3652;26.445;312.0268;78.7728;82.5981;0.0;69.56424;;;;NaN;;;;0 / 0;3416;2017-10-03 21:14:43:673
-1.200225;-11.505802;0.758994;-1.855961;-9.626346;0.243407;-0.495347;0.483617;0.618754;2.1918;18.3298;-5.3837;0.0;-16.0187;13.2217;26.5823;311.0495;78.9961;82.5284;0.0;58.36528;;;;NaN;;;;0 / 0;3427;2017-10-03 21:14:43:684
-1.200225;-11.505802;0.758994;-1.855961;-9.626346;0.243407;-0.495347;0.483617;0.618754;2.1918;18.3298;-5.3837;0.0;-16.0187;13.2217;26.5823;311.0495;78.9961;82.5284;0.0;58.36528;;;;NaN;;;;0 / 0;3436;2017-10-03 21:14:43:693
-1.200225;-11.505802;0.758994;-1.842205;-9.628902;0.246781;-0.510379;0.480193;0.615503;4.6415;28.1705;-3.1605;0.0;-16.0187;13.2217;26.5823;311.0495;78.9961;82.5284;0.0;58.36528;;;;NaN;;;;0 / 0;3446;2017-10-03 21:14:43:703
-1.200225;-11.505802;0.758994;-1.842205;-9.628902;0.246781;-0.510379;0.480193;0.615503;4.6415;28.1705;-3.1605;0.0;-16.0187;13.2217;26.5823;311.0495;78.9961;82.5284;0.0;58.36528;;;;NaN;;;;0 / 0;3456;2017-10-03 21:14:43:713
-0.052871;-11.899418;1.040153;-1.842205;-9.628902;0.246781;-0.510379;0.480193;0.615503;4.6415;28.1705;-3.1605;0.0;-16.0187;13.2217;26.5823;311.0495;78.9961;82.5284;0.0;58.36528;;;;NaN;;;;0 / 0;3467;2017-10-03 21:14:43:724
-0.052871;-11.899418;1.040153;-1.842205;-9.628902;0.246781;-0.510379;0.480193;0.615503;4.6415;28.1705;-3.1605;0.0;-16.0187;13.2217;26.5823;311.0495;78.9961;82.5284;0.0;58.36528;;;;NaN;;;;0 / 0;3476;2017-10-03 21:14:43:733
-0.052871;-11.899418;1.040153;-1.842205;-9.628902;0.246781;-0.510379;0.480193;0.615503;4.6415;28.1705;-3.1605;0.0;-16.0187;13.2217;26.5823;311.0495;78.9961;82.5284;0.0;58.36528;;;;NaN;;;;0 / 0;3486;2017-10-03 21:14:43:743
-0.052871;-11.899418;1.040153;-1.983642;-9.60308;0.128079;-0.187841;0.394243;0.341063;4.6415;28.1705;-3.1605;0.0;-16.4337;12.9654;26.5396;311.1829;79.0746;82.3701;0.0;58.36528;;;;NaN;;;;0 / 0;3496;2017-10-03 21:14:43:753
3.600968;-10.491246;-16.474112;-1.983642;-9.60308;0.128079;-0.187841;0.394243;0.341063;-7.0947;30.2539;13.7793;0.0;-16.4337;12.9654;26.5396;311.1829;79.0746;82.3701;0.0;58.36528;;;;NaN;;;;0 / 0;3506;2017-10-03 21:14:43:763
3.600968;-10.491246;-16.474112;-1.983642;-9.60308;0.128079;-0.187841;0.394243;0.341063;-7.0947;30.2539;13.7793;0.0;-16.4337;12.9654;26.5396;311.1829;79.0746;82.3701;0.0;58.36528;;;;NaN;;;;0 / 0;3517;2017-10-03 21:14:43:774
3.600968;-10.491246;-16.474112;-1.983642;-9.60308;0.128079;-0.187841;0.394243;0.341063;-7.0947;30.2539;13.7793;0.0;-16.4337;12.9654;26.5396;311.1829;79.0746;82.3701;0.0;58.36528;;;;NaN;;;;0 / 0;3527;2017-10-03 21:14:43:784
-1.026748;-13.234608;-4.201333;-1.983642;-9.60308;0.128079;-0.187841;0.394243;0.341063;-7.0947;30.2539;13.7793;0.0;-16.4337;12.9654;26.5396;311.1829;79.0746;82.3701;0.0;58.36528;;;;NaN;;;;0 / 0;3537;2017-10-03 21:14:43:794
-1.026748;-13.234608;-4.201333;-1.983642;-9.60308;0.128079;-0.187841;0.394243;0.341063;-7.0947;30.2539;13.7793;0.0;-16.4337;12.9654;26.5396;311.1829;79.0746;82.3701;0.0;58.36528;;;;NaN;;;;0 / 0;3547;2017-10-03 21:14:43:804
-1.026748;-13.234608;-4.201333;-1.917894;-9.605828;0.469185;4.636239;1.999211;3.275149;21.2088;-41.5494;1.5352;0.0;-16.4337;12.9654;26.5396;311.1829;79.0746;82.3701;0.0;58.36528;;;;NaN;;;;0 / 0;3556;2017-10-03 21:14:43:813
-1.026748;-13.234608;-4.201333;-1.917894;-9.605828;0.469185;4.636239;1.999211;3.275149;21.2088;-41.5494;1.5352;0.0;-16.5237;13.1805;26.4374;319.5044;78.3848;76.2534;0.0;58.36528;;;;NaN;;;;0 / 0;3566;2017-10-03 21:14:43:823
-2.644302;-11.713978;2.317924;-1.917894;-9.605828;0.469185;4.636239;1.999211;3.275149;21.2088;-41.5494;1.5352;0.0;-16.5237;13.1805;26.4374;319.5044;78.3848;76.2534;0.0;58.36528;;;;NaN;;;;0 / 0;3576;2017-10-03 21:14:43:833
-2.644302;-11.713978;2.317924;-1.917894;-9.605828;0.469185;4.636239;1.999211;3.275149;21.2088;-41.5494;1.5352;0.0;-16.5237;13.1805;26.4374;319.5044;78.3848;76.2534;0.0;58.36528;;;;NaN;;;;0 / 0;3587;2017-10-03 21:14:43:844
-2.644302;-11.713978;2.317924;-1.917894;-9.605828;0.469185;4.636239;1.999211;3.275149;21.2088;-41.5494;1.5352;0.0;-16.5237;13.1805;26.4374;319.5044;78.3848;76.2534;0.0;58.36528;;;;NaN;;;;0 / 0;3596;2017-10-03 21:14:43:853
-2.644302;-11.713978;2.317924;-1.917894;-9.605828;0.469185;4.636239;1.999211;3.275149;21.2088;-41.5494;1.5352;0.0;-16.5237;13.1805;26.4374;319.5044;78.3848;76.2534;0.0;58.36528;;;;NaN;;;;0 / 0;3607;2017-10-03 21:14:43:864
-0.770721;-11.294026;2.864677;-1.879912;-9.613988;0.455583;-1.454088;-0.266998;-1.286471;7.6463;34.5063;-8.177;0.0;-16.5237;13.1805;26.4374;319.5044;78.3848;76.2534;0.0;58.36528;;;;NaN;;;;0 / 0;3617;2017-10-03 21:14:43:874
-0.770721;-11.294026;2.864677;-1.879912;-9.613988;0.455583;-1.454088;-0.266998;-1.286471;7.6463;34.5063;-8.177;0.0;-16.5237;13.1805;26.4374;319.5044;78.3848;76.2534;0.0;58.36528;;;;NaN;;;;0 / 0;3626;2017-10-03 21:14:43:883
-0.770721;-11.294026;2.864677;-1.879912;-9.613988;0.455583;-1.454088;-0.266998;-1.286471;7.6463;34.5063;-8.177;0.0;-16.5466;13.2446;26.2253;319.3484;78.624;76.3774;0.0;58.36528;;;;NaN;;;;0 / 0;3637;2017-10-03 21:14:43:894
-0.770721;-11.294026;2.864677;-1.879912;-9.613988;0.455583;-1.454088;-0.266998;-1.286471;7.6463;34.5063;-8.177;0.0;-16.5466;13.2446;26.2253;319.3484;78.624;76.3774;0.0;58.36528;;;;NaN;;;;0 / 0;3647;2017-10-03 21:14:43:904
1.466569;-12.334904;0.138053;-1.879912;-9.613988;0.455583;-1.454088;-0.266998;-1.286471;7.6463;34.5063;-8.177;0.0;-16.5466;13.2446;26.2253;319.3484;78.624;76.3774;0.0;58.36528;;;;NaN;;;;0 / 0;3657;2017-10-03 21:14:43:914
1.466569;-12.334904;0.138053;-1.958959;-9.603896;0.313086;0.515838;0.261509;1.167747;-15.0924;10.1983;8.6806;0.0;-16.5466;13.2446;26.2253;319.3484;78.624;76.3774;0.0;58.36528;;;;NaN;;;;0 / 0;3666;2017-10-03 21:14:43:923
1.466569;-12.334904;0.138053;-1.958959;-9.603896;0.313086;0.515838;0.261509;1.167747;-15.0924;10.1983;8.6806;0.0;-16.5466;13.2446;26.2253;319.3484;78.624;76.3774;0.0;58.36528;;;;NaN;;;;0 / 0;3676;2017-10-03 21:14:43:933
1.427094;-12.004704;0.122504;-1.958959;-9.603896;0.313086;0.515838;0.261509;1.167747;-15.0924;10.1983;8.6806;0.0;-16.5466;13.2446;26.2253;319.3484;78.624;76.3774;0.0;58.36528;;;;NaN;;;;0 / 0;3686;2017-10-03 21:14:43:943
1.427094;-12.004704;0.122504;-1.958959;-9.603896;0.313086;0.515838;0.261509;1.167747;-15.0924;10.1983;8.6806;0.0;-16.8854;13.1699;26.0468;315.1206;78.3289;80.9196;0.0;58.36528;;;;NaN;;;;0 / 0;3696;2017-10-03 21:14:43:953
1.427094;-12.004704;0.122504;-1.958959;-9.603896;0.313086;0.515838;0.261509;1.167747;-15.0924;10.1983;8.6806;0.0;-16.8854;13.1699;26.0468;315.1206;78.3289;80.9196;0.0;58.36528;;;;NaN;;;;0 / 0;3706;2017-10-03 21:14:43:963
1.427094;-12.004704;0.122504;-1.958959;-9.603896;0.313086;0.515838;0.261509;1.167747;-15.0924;10.1983;8.6806;0.0;-16.8854;13.1699;26.0468;315.1206;78.3289;80.9196;0.0;58.36528;;;;NaN;;;;0 / 0;3717;2017-10-03 21:14:43:974
-0.809005;-10.734104;4.756202;-1.855016;-9.628978;0.109887;1.457997;0.170158;0.451634;-15.3958;33.6364;-9.1693;0.0;-16.8854;13.1699;26.0468;315.1206;78.3289;80.9196;0.0;69.57842;;;;NaN;;;;0 / 0;3726;2017-10-03 21:14:43:983
-0.809005;-10.734104;4.756202;-1.855016;-9.628978;0.109887;1.457997;0.170158;0.451634;-15.3958;33.6364;-9.1693;0.0;-16.8854;13.1699;26.0468;315.1206;78.3289;80.9196;0.0;69.57842;;;;NaN;;;;0 / 0;3736;2017-10-03 21:14:43:993
-0.809005;-10.734104;4.756202;-1.855016;-9.628978;0.109887;1.457997;0.170158;0.451634;-15.3958;33.6364;-9.1693;0.0;-16.8854;13.1699;26.0468;315.1206;78.3289;80.9196;0.0;69.57842;;;;NaN;;;;0 / 0;3746;2017-10-03 21:14:44:003
-0.809005;-10.734104;4.756202;-1.855016;-9.628978;0.109887;1.457997;0.170158;0.451634;-15.3958;33.6364;-9.1693;0.0;-16.8854;13.1699;26.0468;315.1206;78.3289;80.9196;0.0;69.57842;;;;NaN;;;;0 / 0;3756;2017-10-03 21:14:44:013
-0.196441;-12.227238;-0.586968;-1.855016;-9.628978;0.109887;1.457997;0.170158;0.451634;-15.3958;33.6364;-9.1693;0.0;-16.8808;13.2263;25.9476;309.5946;79.077;86.6099;0.0;69.57842;;;;NaN;;;;0 / 0;3767;2017-10-03 21:14:44:024
-0.196441;-12.227238;-0.586968;-1.855016;-9.628978;0.109887;1.457997;0.170158;0.451634;-15.3958;33.6364;-9.1693;0.0;-16.8808;13.2263;25.9476;309.5946;79.077;86.6099;0.0;69.57842;;;;NaN;;;;0 / 0;3777;2017-10-03 21:14:44:034
-0.196441;-12.227238;-0.586968;-1.785126;-9.632534;0.444951;-0.36165;0.397395;0.102111;20.999;-73.843;-5.9721;0.0;-16.8808;13.2263;25.9476;309.5946;79.077;86.6099;0.0;69.57842;;;;NaN;;;;0 / 0;3786;2017-10-03 21:14:44:043
-0.196441;-12.227238;-0.586968;-1.785126;-9.632534;0.444951;-0.36165;0.397395;0.102111;20.999;-73.843;-5.9721;0.0;-16.8808;13.2263;25.9476;309.5946;79.077;86.6099;0.0;69.57842;;;;NaN;;;;0 / 0;3796;2017-10-03 21:14:44:053
-1.122466;-11.697224;-0.003121;-1.785126;-9.632534;0.444951;-0.36165;0.397395;0.102111;20.999;-73.843;-5.9721;0.0;-16.8808;13.2263;25.9476;309.5946;79.077;86.6099;0.0;69.57842;;;;NaN;;;;0 / 0;3807;2017-10-03 21:14:44:064
-1.122466;-11.697224;-0.003121;-1.785126;-9.632534;0.444951;-0.36165;0.397395;0.102111;20.999;-73.843;-5.9721;0.0;-16.8808;13.2263;25.9476;309.5946;79.077;86.6099;0.0;69.57842;;;;NaN;;;;0 / 0;3817;2017-10-03 21:14:44:074
-1.122466;-11.697224;-0.003121;-1.785126;-9.632534;0.444951;-0.36165;0.397395;0.102111;20.999;-73.843;-5.9721;0.0;-16.8808;13.2263;25.9476;309.5946;79.077;86.6099;0.0;69.57842;;;;NaN;;;;0 / 0;3827;2017-10-03 21:14:44:084
-1.737426;-11.532124;3.495185;-1.785126;-9.632534;0.444951;-0.365522;0.397496;0.223681;-19.2863;-33.5752;0.4555;0.0;-16.7984;13.2309;25.911;319.6068;79.1872;76.004;0.0;69.57842;;;;NaN;;;;0 / 0;3836;2017-10-03 21:14:44:093
-1.737426;-11.532124;3.495185;-1.782237;-9.637902;0.323831;-0.365522;0.397496;0.223681;-19.2863;-33.5752;0.4555;0.0;-16.7984;13.2309;25.911;319.6068;79.1872;76.004;0.0;69.57842;;;;NaN;;;;0 / 0;3846;2017-10-03 21:14:44:103
-1.737426;-11.532124;3.495185;-1.782237;-9.637902;0.323831;-0.365522;0.397496;0.223681;-19.2863;-33.5752;0.4555;0.0;-16.7984;13.2309;25.911;319.6068;79.1872;76.004;0.0;69.57842;;;;NaN;;;;0 / 0;3856;2017-10-03 21:14:44:113
-1.737426;-11.532124;3.495185;-1.782237;-9.637902;0.323831;-0.365522;0.397496;0.223681;-19.2863;-33.5752;0.4555;0.0;-16.7984;13.2309;25.911;319.6068;79.1872;76.004;0.0;69.57842;;;;NaN;;;;0 / 0;3867;2017-10-03 21:14:44:124
-0.891555;-11.668508;1.597678;-1.782237;-9.637902;0.323831;-0.365522;0.397496;0.223681;-19.2863;-33.5752;0.4555;0.0;-16.7984;13.2309;25.911;319.6068;79.1872;76.004;0.0;69.57842;;;;NaN;;;;0 / 0;3877;2017-10-03 21:14:44:134
-0.891555;-11.668508;1.597678;-1.782237;-9.637902;0.323831;-0.365522;0.397496;0.223681;-19.2863;-33.5752;0.4555;0.0;-16.7984;13.2309;25.911;319.6068;79.1872;76.004;0.0;69.57842;;;;NaN;;;;0 / 0;3886;2017-10-03 21:14:44:143
-0.891555;-11.668508;1.597678;-1.782237;-9.637902;0.323831;-0.365522;0.397496;0.223681;-19.2863;-33.5752;0.4555;0.0;-16.7984;13.2309;25.911;319.6068;79.1872;76.004;0.0;69.57842;;;;NaN;;;;0 / 0;3896;2017-10-03 21:14:44:153
-0.353164;-11.840794;0.900168;-1.782237;-9.637902;0.323831;-0.365522;0.397496;0.223681;-3.81;-7.9138;2.6604;0.0;-16.9098;13.0203;26.0681;316.0793;79.3556;79.7018;0.0;69.57842;;;;NaN;;;;0 / 0;3906;2017-10-03 21:14:44:163
-0.353164;-11.840794;0.900168;-1.81737;-9.631558;0.317211;-0.680722;0.372252;0.924154;-3.81;-7.9138;2.6604;0.0;-16.9098;13.0203;26.0681;316.0793;79.3556;79.7018;0.0;69.57842;;;;NaN;;;;0 / 0;3916;2017-10-03 21:14:44:173
-0.353164;-11.840794;0.900168;-1.81737;-9.631558;0.317211;-0.680722;0.372252;0.924154;-3.81;-7.9138;2.6604;0.0;-16.9098;13.0203;26.0681;316.0793;79.3556;79.7018;0.0;69.57842;;;;NaN;;;;0 / 0;3926;2017-10-03 21:14:44:183
-0.353164;-11.840794;0.900168;-1.81737;-9.631558;0.317211;-0.680722;0.372252;0.924154;-3.81;-7.9138;2.6604;0.0;-16.9098;13.0203;26.0681;316.0793;79.3556;79.7018;0.0;69.57842;;;;NaN;;;;0 / 0;3936;2017-10-03 21:14:44:193
-0.353164;-11.840794;0.900168;-1.81737;-9.631558;0.317211;-0.680722;0.372252;0.924154;-3.81;-7.9138;2.6604;0.0;-16.9098;13.0203;26.0681;316.0793;79.3556;79.7018;0.0;69.57842;;;;NaN;;;;0 / 0;3946;2017-10-03 21:14:44:203
-0.943008;-11.581166;1.740058;-1.803893;-9.634372;0.308643;-0.08099;0.211024;0.601313;0.5001;13.1612;-2.0292;0.0;-16.9098;13.0203;26.0681;316.0793;79.3556;79.7018;0.0;69.57842;;;;NaN;;;;0 / 0;3963;2017-10-03 21:14:44:220
-0.943008;-11.581166;1.740058;-1.803893;-9.634372;0.308643;-0.08099;0.211024;0.601313;0.5001;13.1612;-2.0292;0.0;-16.9098;13.0203;26.0681;316.0793;79.3556;79.7018;0.0;69.57842;;;;NaN;;;;0 / 0;3967;2017-10-03 21:14:44:224
-0.943008;-11.581166;1.740058;-1.803893;-9.634372;0.308643;-0.08099;0.211024;0.601313;0.5001;13.1612;-2.0292;0.0;-16.9098;13.0203;26.0681;316.0793;79.3556;79.7018;0.0;69.57842;;;;NaN;;;;0 / 0;3977;2017-10-03 21:14:44:234
-0.943008;-11.581166;1.740058;-1.803893;-9.634372;0.308643;-0.08099;0.211024;0.601313;0.5001;13.1612;-2.0292;0.0;-16.9098;13.0203;26.0681;316.0793;79.3556;79.7018;0.0;69.57842;;;;NaN;;;;0 / 0;3986;2017-10-03 21:14:44:243
-0.943008;-11.581166;1.740058;-1.803893;-9.634372;0.308643;-0.08099;0.211024;0.601313;0.5001;13.1612;-2.0292;0.0;-16.9098;13.0203;26.0681;316.0793;79.3556;79.7018;0.0;69.57842;;;;NaN;;;;0 / 0;3996;2017-10-03 21:14:44:253
-0.943008;-11.581166;1.740058;-1.803893;-9.634372;0.308643;-0.08099;0.211024;0.601313;0.5001;13.1612;-2.0292;0.0;-16.9098;13.0203;26.0681;316.0793;79.3556;79.7018;0.0;69.57842;;;;NaN;;;;0 / 0;4007;2017-10-03 21:14:44:264
-0.943008;-11.581166;1.740058;-1.803893;-9.634372;0.308643;-0.08099;0.211024;0.601313;0.5001;13.1612;-2.0292;0.0;-16.9098;13.0203;26.0681;316.0793;79.3556;79.7018;0.0;69.57842;;;;NaN;;;;0 / 0;4017;2017-10-03 21:14:44:274
-0.943008;-11.581166;1.740058;-1.803893;-9.634372;0.308643;-0.08099;0.211024;0.601313;0.5001;13.1612;-2.0292;0.0;-16.9098;13.0203;26.0681;316.0793;79.3556;79.7018;0.0;69.57842;;;;NaN;;;;0 / 0;4027;2017-10-03 21:14:44:284
-0.943008;-11.581166;1.740058;-1.803893;-9.634372;0.308643;-0.08099;0.211024;0.601313;0.5001;13.1612;-2.0292;0.0;-16.9098;13.0203;26.0681;316.0793;79.3556;79.7018;0.0;69.57842;;;;NaN;;;;0 / 0;4037;2017-10-03 21:14:44:294
-0.943008;-11.581166;1.740058;-1.803893;-9.634372;0.308643;-0.08099;0.211024;0.601313;0.5001;13.1612;-2.0292;0.0;-16.9098;13.0203;26.0681;316.0793;79.3556;79.7018;0.0;69.57842;;;;NaN;;;;0 / 0;4046;2017-10-03 21:14:44:303
-0.943008;-11.581166;1.740058;-1.803893;-9.634372;0.308643;-0.08099;0.211024;0.601313;0.5001;13.1612;-2.0292;0.0;-16.9098;13.0203;26.0681;316.0793;79.3556;79.7018;0.0;69.57842;;;;NaN;;;;0 / 0;4056;2017-10-03 21:14:44:313
-0.943008;-11.581166;1.740058;-1.803893;-9.634372;0.308643;-0.08099;0.211024;0.601313;0.5001;13.1612;-2.0292;0.0;-16.9098;13.0203;26.0681;316.0793;79.3556;79.7018;0.0;69.57842;;;;NaN;;;;0 / 0;4066;2017-10-03 21:14:44:323
-0.943008;-11.581166;1.740058;-1.803893;-9.634372;0.308643;-0.08099;0.211024;0.601313;0.5001;13.1612;-2.0292;0.0;-16.9098;13.0203;26.0681;316.0793;79.3556;79.7018;0.0;69.57842;;;;NaN;;;;0 / 0;4076;2017-10-03 21:14:44:333
-0.943008;-11.581166;1.740058;-1.803893;-9.634372;0.308643;-0.08099;0.211024;0.601313;0.5001;13.1612;-2.0292;0.0;-16.9098;13.0203;26.0681;316.0793;79.3556;79.7018;0.0;69.57842;;;;NaN;;;;0 / 0;4087;2017-10-03 21:14:44:344
-0.943008;-11.581166;1.740058;-1.803893;-9.634372;0.308643;-0.08099;0.211024;0.601313;0.5001;13.1612;-2.0292;0.0;-16.9098;13.0203;26.0681;316.0793;79.3556;79.7018;0.0;69.57842;;;;NaN;;;;0 / 0;4097;2017-10-03 21:14:44:354
-0.943008;-11.581166;1.740058;-1.803893;-9.634372;0.308643;-0.08099;0.211024;0.601313;0.5001;13.1612;-2.0292;0.0;-16.9098;13.0203;26.0681;316.0793;79.3556;79.7018;0.0;69.57842;;;;NaN;;;;0 / 0;4107;2017-10-03 21:14:44:364
-0.943008;-11.581166;1.740058;-1.803893;-9.634372;0.308643;-0.08099;0.211024;0.601313;0.5001;13.1612;-2.0292;0.0;-16.9098;13.0203;26.0681;316.0793;79.3556;79.7018;0.0;69.57842;;;;NaN;;;;0 / 0;4117;2017-10-03 21:14:44:374
-0.943008;-11.581166;1.740058;-1.803893;-9.634372;0.308643;-0.08099;0.211024;0.601313;0.5001;13.1612;-2.0292;0.0;-16.9098;13.0203;26.0681;316.0793;79.3556;79.7018;0.0;69.57842;;;;NaN;;;;0 / 0;4127;2017-10-03 21:14:44:384
-0.943008;-11.581166;1.740058;-1.803893;-9.634372;0.308643;-0.08099;0.211024;0.601313;0.5001;13.1612;-2.0292;0.0;-16.9098;13.0203;26.0681;316.0793;79.3556;79.7018;0.0;69.57842;;;;NaN;;;;0 / 0;4137;2017-10-03 21:14:44:394
-0.943008;-11.581166;1.740058;-1.803893;-9.634372;0.308643;-0.08099;0.211024;0.601313;0.5001;13.1612;-2.0292;0.0;-16.9098;13.0203;26.0681;316.0793;79.3556;79.7018;0.0;69.57842;;;;NaN;;;;0 / 0;4146;2017-10-03 21:14:44:403
-0.943008;-11.581166;1.740058;-1.803893;-9.634372;0.308643;-0.08099;0.211024;0.601313;0.5001;13.1612;-2.0292;0.0;-16.9098;13.0203;26.0681;316.0793;79.3556;79.7018;0.0;69.57842;;;;NaN;;;;0 / 0;4157;2017-10-03 21:14:44:414
-0.943008;-11.581166;1.740058;-1.803893;-9.634372;0.308643;-0.08099;0.211024;0.601313;0.5001;13.1612;-2.0292;0.0;-16.9098;13.0203;26.0681;316.0793;79.3556;79.7018;0.0;69.57842;;;;NaN;;;;0 / 0;4167;2017-10-03 21:14:44:424
-0.943008;-11.581166;1.740058;-1.803893;-9.634372;0.308643;-0.08099;0.211024;0.601313;0.5001;13.1612;-2.0292;0.0;-16.9098;13.0203;26.0681;316.0793;79.3556;79.7018;0.0;69.57842;;;;NaN;;;;0 / 0;4176;2017-10-03 21:14:44:433
-0.943008;-11.581166;1.740058;-1.803893;-9.634372;0.308643;-0.08099;0.211024;0.601313;0.5001;13.1612;-2.0292;0.0;-16.9098;13.0203;26.0681;316.0793;79.3556;79.7018;0.0;69.57842;;;;NaN;;;;0 / 0;4186;2017-10-03 21:14:44:443
-0.943008;-11.581166;1.740058;-1.803893;-9.634372;0.308643;-0.08099;0.211024;0.601313;0.5001;13.1612;-2.0292;0.0;-16.9098;13.0203;26.0681;316.0793;79.3556;79.7018;0.0;69.57842;;;;NaN;;;;0 / 0;4196;2017-10-03 21:14:44:453
-0.943008;-11.581166;1.740058;-1.803893;-9.634372;0.308643;-0.08099;0.211024;0.601313;0.5001;13.1612;-2.0292;0.0;-16.9098;13.0203;26.0681;316.0793;79.3556;79.7018;0.0;69.57842;;;;NaN;;;;0 / 0;4206;2017-10-03 21:14:44:463
-0.943008;-11.581166;1.740058;-1.803893;-9.634372;0.308643;-0.08099;0.211024;0.601313;0.5001;13.1612;-2.0292;0.0;-16.9098;13.0203;26.0681;316.0793;79.3556;79.7018;0.0;69.57842;;;;NaN;;;;0 / 0;4216;2017-10-03 21:14:44:473
-0.943008;-11.581166;1.740058;-1.803893;-9.634372;0.308643;-0.08099;0.211024;0.601313;0.5001;13.1612;-2.0292;0.0;-16.9098;13.0203;26.0681;316.0793;79.3556;79.7018;0.0;69.57842;;;;NaN;;;;0 / 0;4227;2017-10-03 21:14:44:484
-0.943008;-11.581166;1.740058;-1.803893;-9.634372;0.308643;-0.08099;0.211024;0.601313;0.5001;13.1612;-2.0292;0.0;-16.9098;13.0203;26.0681;316.0793;79.3556;79.7018;0.0;69.57842;;;;NaN;;;;0 / 0;4237;2017-10-03 21:14:44:494
-0.943008;-11.581166;1.740058;-1.803893;-9.634372;0.308643;-0.08099;0.211024;0.601313;0.5001;13.1612;-2.0292;0.0;-16.9098;13.0203;26.0681;316.0793;79.3556;79.7018;0.0;69.57842;;;;NaN;;;;0 / 0;4247;2017-10-03 21:14:44:504
-0.943008;-11.581166;1.740058;-1.803893;-9.634372;0.308643;-0.08099;0.211024;0.601313;0.5001;13.1612;-2.0292;0.0;-16.9098;13.0203;26.0681;316.0793;79.3556;79.7018;0.0;69.57842;;;;NaN;;;;0 / 0;4256;2017-10-03 21:14:44:513
-0.943008;-11.581166;1.740058;-1.803893;-9.634372;0.308643;-0.08099;0.211024;0.601313;0.5001;13.1612;-2.0292;0.0;-16.9098;13.0203;26.0681;316.0793;79.3556;79.7018;0.0;69.57842;;;;NaN;;;;0 / 0;4267;2017-10-03 21:14:44:524
-0.943008;-11.581166;1.740058;-1.803893;-9.634372;0.308643;-0.08099;0.211024;0.601313;0.5001;13.1612;-2.0292;0.0;-16.9098;13.0203;26.0681;316.0793;79.3556;79.7018;0.0;69.57842;;;;NaN;;;;0 / 0;4277;2017-10-03 21:14:44:534
-0.943008;-11.581166;1.740058;-1.803893;-9.634372;0.308643;-0.08099;0.211024;0.601313;0.5001;13.1612;-2.0292;0.0;-16.9098;13.0203;26.0681;316.0793;79.3556;79.7018;0.0;69.57842;;;;NaN;;;;0 / 0;4287;2017-10-03 21:14:44:544
-0.943008;-11.581166;1.740058;-1.803893;-9.634372;0.308643;-0.08099;0.211024;0.601313;0.5001;13.1612;-2.0292;0.0;-16.9098;13.0203;26.0681;316.0793;79.3556;79.7018;0.0;69.57842;;;;NaN;;;;0 / 0;4297;2017-10-03 21:14:44:554
-0.943008;-11.581166;1.740058;-1.803893;-9.634372;0.308643;-0.08099;0.211024;0.601313;0.5001;13.1612;-2.0292;0.0;-16.9098;13.0203;26.0681;316.0793;79.3556;79.7018;0.0;69.57842;;;;NaN;;;;0 / 0;4308;2017-10-03 21:14:44:565
-0.943008;-11.581166;1.740058;-1.803893;-9.634372;0.308643;-0.08099;0.211024;0.601313;0.5001;13.1612;-2.0292;0.0;-16.9098;13.0203;26.0681;316.0793;79.3556;79.7018;0.0;69.57842;;;;NaN;;;;0 / 0;4316;2017-10-03 21:14:44:573
-0.943008;-11.581166;1.740058;-1.803893;-9.634372;0.308643;-0.08099;0.211024;0.601313;0.5001;13.1612;-2.0292;0.0;-16.9098;13.0203;26.0681;316.0793;79.3556;79.7018;0.0;69.57842;;;;NaN;;;;0 / 0;4326;2017-10-03 21:14:44:583
-0.943008;-11.581166;1.740058;-1.803893;-9.634372;0.308643;-0.08099;0.211024;0.601313;0.5001;13.1612;-2.0292;0.0;-16.9098;13.0203;26.0681;316.0793;79.3556;79.7018;0.0;69.57842;;;;NaN;;;;0 / 0;4336;2017-10-03 21:14:44:593
-0.943008;-11.581166;1.740058;-1.803893;-9.634372;0.308643;-0.08099;0.211024;0.601313;0.5001;13.1612;-2.0292;0.0;-16.9098;13.0203;26.0681;316.0793;79.3556;79.7018;0.0;69.57842;;;;NaN;;;;0 / 0;4346;2017-10-03 21:14:44:603
-0.943008;-11.581166;1.740058;-1.803893;-9.634372;0.308643;-0.08099;0.211024;0.601313;0.5001;13.1612;-2.0292;0.0;-16.9098;13.0203;26.0681;316.0793;79.3556;79.7018;0.0;69.57842;;;;NaN;;;;0 / 0;4356;2017-10-03 21:14:44:613
-0.943008;-11.581166;1.740058;-1.803893;-9.634372;0.308643;-0.08099;0.211024;0.601313;0.5001;13.1612;-2.0292;0.0;-16.9098;13.0203;26.0681;316.0793;79.3556;79.7018;0.0;69.57842;;;;NaN;;;;0 / 0;4367;2017-10-03 21:14:44:624
-1.498138;-11.587148;1.278235;-1.789663;-9.636832;0.31458;-0.769322;0.394795;0.852525;1.2992;11.8489;-3.3012;0.0;-16.893;13.0508;26.03;315.5428;79.2445;80.2908;0.0;69.57842;;;;NaN;;;;0 / 0;4376;2017-10-03 21:14:44:633
-1.498138;-11.587148;1.278235;-1.789663;-9.636832;0.31458;-0.769322;0.394795;0.852525;1.2992;11.8489;-3.3012;0.0;-16.893;13.0508;26.03;315.5428;79.2445;80.2908;0.0;69.57842;;;;NaN;;;;0 / 0;4386;2017-10-03 21:14:44:643
-1.498138;-11.587148;1.278235;-1.789663;-9.636832;0.31458;-0.769322;0.394795;0.852525;1.2992;11.8489;-3.3012;0.0;-16.893;13.0508;26.03;315.5428;79.2445;80.2908;0.0;69.57842;;;;NaN;;;;0 / 0;4396;2017-10-03 21:14:44:653
-1.498138;-11.587148;1.278235;-1.789663;-9.636832;0.31458;-0.769322;0.394795;0.852525;1.2992;11.8489;-3.3012;0.0;-16.893;13.0508;26.03;315.5428;79.2445;80.2908;0.0;69.57842;;;;NaN;;;;0 / 0;4406;2017-10-03 21:14:44:663
-1.498138;-11.587148;1.278235;-1.789663;-9.636832;0.31458;-0.769322;0.394795;0.852525;1.2992;11.8489;-3.3012;0.0;-16.893;13.0508;26.03;315.5428;79.2445;80.2908;0.0;69.57842;;;;NaN;;;;0 / 0;4416;2017-10-03 21:14:44:673
-1.498138;-11.587148;1.278235;-1.789663;-9.636832;0.31458;-0.769322;0.394795;0.852525;1.2992;11.8489;-3.3012;0.0;-16.893;13.0508;26.03;315.5428;79.2445;80.2908;0.0;69.57842;;;;NaN;;;;0 / 0;4426;2017-10-03 21:14:44:683
-1.498138;-11.587148;1.278235;-1.789663;-9.636832;0.31458;-0.769322;0.394795;0.852525;1.2992;11.8489;-3.3012;0.0;-16.893;13.0508;26.03;315.5428;79.2445;80.2908;0.0;69.57842;;;;NaN;;;;0 / 0;4436;2017-10-03 21:14:44:693
-1.498138;-11.587148;1.278235;-1.789663;-9.636832;0.31458;-0.769322;0.394795;0.852525;1.2992;11.8489;-3.3012;0.0;-16.893;13.0508;26.03;315.5428;79.2445;80.2908;0.0;69.57842;;;;NaN;;;;0 / 0;4446;2017-10-03 21:14:44:703
-1.498138;-11.587148;1.278235;-1.789663;-9.636832;0.31458;-0.769322;0.394795;0.852525;1.2992;11.8489;-3.3012;0.0;-16.893;13.0508;26.03;315.5428;79.2445;80.2908;0.0;69.57842;;;;NaN;;;;0 / 0;4456;2017-10-03 21:14:44:713
-1.498138;-11.587148;1.278235;-1.789663;-9.636832;0.31458;-0.769322;0.394795;0.852525;1.2992;11.8489;-3.3012;0.0;-16.893;13.0508;26.03;315.5428;79.2445;80.2908;0.0;69.57842;;;;NaN;;;;0 / 0;4467;2017-10-03 21:14:44:724
-1.498138;-11.587148;1.278235;-1.789663;-9.636832;0.31458;-0.769322;0.394795;0.852525;1.2992;11.8489;-3.3012;0.0;-16.893;13.0508;26.03;315.5428;79.2445;80.2908;0.0;69.57842;;;;NaN;;;;0 / 0;4477;2017-10-03 21:14:44:734
-0.907104;-11.676884;1.190894;-1.788559;-9.637154;0.310986;-0.363345;0.254684;0.284944;3.0145;6.7913;-1.7372;0.0;-17.215;12.8067;25.8667;315.7744;79.3218;80.0306;0.0;69.57842;;;;NaN;;;;0 / 0;4489;2017-10-03 21:14:44:746
-0.907104;-11.676884;1.190894;-1.788559;-9.637154;0.310986;-0.363345;0.254684;0.284944;3.0145;6.7913;-1.7372;0.0;-17.215;12.8067;25.8667;315.7744;79.3218;80.0306;0.0;69.57842;;;;NaN;;;;0 / 0;4497;2017-10-03 21:14:44:754
-0.907104;-11.676884;1.190894;-1.788559;-9.637154;0.310986;-0.363345;0.254684;0.284944;3.0145;6.7913;-1.7372;0.0;-17.215;12.8067;25.8667;315.7744;79.3218;80.0306;0.0;69.57842;;;;NaN;;;;0 / 0;4506;2017-10-03 21:14:44:763
-0.907104;-11.676884;1.190894;-1.788559;-9.637154;0.310986;-0.363345;0.254684;0.284944;3.0145;6.7913;-1.7372;0.0;-17.215;12.8067;25.8667;315.7744;79.3218;80.0306;0.0;69.57842;;;;NaN;;;;0 / 0;4516;2017-10-03 21:14:44:773
-0.390258;-11.692432;1.076041;-1.788559;-9.637154;0.310986;-0.363345;0.254684;0.284944;3.0145;6.7913;-1.7372;0.0;-17.3691;12.6999;25.679;315.6724;79.3319;80.1363;0.0;63.63153;;;;NaN;;;;0 / 0;4529;2017-10-03 21:14:44:786
-0.390258;-11.692432;1.076041;-1.788559;-9.637154;0.310986;-0.363345;0.254684;0.284944;3.0145;6.7913;-1.7372;0.0;-17.3691;12.6999;25.679;315.6724;79.3319;80.1363;0.0;63.63153;;;;NaN;;;;0 / 0;4537;2017-10-03 21:14:44:794
-0.390258;-11.692432;1.076041;-1.788559;-9.637154;0.310986;-0.363345;0.254684;0.284944;3.0145;6.7913;-1.7372;0.0;-17.3691;12.6999;25.679;315.6724;79.3319;80.1363;0.0;63.63153;;;;NaN;;;;0 / 0;4547;2017-10-03 21:14:44:804
-0.410598;-11.715168;0.956397;-1.781347;-9.636156;0.376426;0.183734;0.297136;0.521258;0.9608;-6.5552;0.4966;0.0;-17.3691;12.6999;25.679;315.6724;79.3319;80.1363;0.0;63.63153;;;;NaN;;;;0 / 0;4558;2017-10-03 21:14:44:815
-0.410598;-11.715168;0.956397;-1.781347;-9.636156;0.376426;0.183734;0.297136;0.521258;0.9608;-6.5552;0.4966;0.0;-17.3691;12.6999;25.679;315.6724;79.3319;80.1363;0.0;63.63153;;;;NaN;;;;0 / 0;4567;2017-10-03 21:14:44:824
-0.410598;-11.715168;0.956397;-1.781347;-9.636156;0.376426;0.183734;0.297136;0.521258;0.9608;-6.5552;0.4966;0.0;-17.3508;12.674;25.6989;317.6354;79.3005;78.0681;0.0;63.63153;;;;NaN;;;;0 / 0;4577;2017-10-03 21:14:44:834
-0.410598;-11.715168;0.956397;-1.781347;-9.636156;0.376426;0.183734;0.297136;0.521258;0.9608;-6.5552;0.4966;0.0;-17.3508;12.674;25.6989;317.6354;79.3005;78.0681;0.0;63.63153;;;;NaN;;;;0 / 0;4587;2017-10-03 21:14:44:844
-0.624755;-11.743886;1.022208;-1.781347;-9.636156;0.376426;0.183734;0.297136;0.521258;0.9608;-6.5552;0.4966;0.0;-17.3508;12.674;25.6989;317.6354;79.3005;78.0681;0.0;63.63153;;;;NaN;;;;0 / 0;4597;2017-10-03 21:14:44:854
-0.624755;-11.743886;1.022208;-1.781347;-9.636156;0.376426;0.183734;0.297136;0.521258;0.9608;-6.5552;0.4966;0.0;-17.3508;12.674;25.6989;317.6354;79.3005;78.0681;0.0;63.63153;;;;NaN;;;;0 / 0;4607;2017-10-03 21:14:44:864
-0.624755;-11.743886;1.022208;-1.781347;-9.636156;0.376426;0.183734;0.297136;0.521258;0.9608;-6.5552;0.4966;0.0;-17.3508;12.674;25.6989;317.6354;79.3005;78.0681;0.0;63.63153;;;;NaN;;;;0 / 0;4617;2017-10-03 21:14:44:874
-0.624755;-11.743886;1.022208;-1.781347;-9.636156;0.376426;0.183734;0.297136;0.521258;0.9608;-6.5552;0.4966;0.0;-17.3508;12.674;25.6989;317.6354;79.3005;78.0681;0.0;63.63153;;;;NaN;;;;0 / 0;4627;2017-10-03 21:14:44:884
-0.655868;-11.78336;1.19329;-1.827622;-9.625304;0.428599;-0.128726;0.24465;0.288477;-0.8236;-11.9153;3.3432;0.0;-17.3248;12.6907;25.7431;318.8909;78.9642;76.802;0.0;63.63153;;;;NaN;;;;0 / 0;4636;2017-10-03 21:14:44:893
-0.655868;-11.78336;1.19329;-1.827622;-9.625304;0.428599;-0.128726;0.24465;0.288477;-0.8236;-11.9153;3.3432;0.0;-17.3248;12.6907;25.7431;318.8909;78.9642;76.802;0.0;63.63153;;;;NaN;;;;0 / 0;4646;2017-10-03 21:14:44:903
-0.655868;-11.78336;1.19329;-1.827622;-9.625304;0.428599;-0.128726;0.24465;0.288477;-0.8236;-11.9153;3.3432;0.0;-17.3248;12.6907;25.7431;318.8909;78.9642;76.802;0.0;63.63153;;;;NaN;;;;0 / 0;4656;2017-10-03 21:14:44:913
-0.655868;-11.78336;1.19329;-1.827622;-9.625304;0.428599;-0.128726;0.24465;0.288477;-0.8236;-11.9153;3.3432;0.0;-17.3248;12.6907;25.7431;318.8909;78.9642;76.802;0.0;63.63153;;;;NaN;;;;0 / 0;4666;2017-10-03 21:14:44:923
-0.592452;-11.846776;1.115531;-1.827622;-9.625304;0.428599;-0.128726;0.24465;0.288477;-0.8236;-11.9153;3.3432;0.0;-17.3248;12.6907;25.7431;318.8909;78.9642;76.802;0.0;63.63153;;;;NaN;;;;0 / 0;4677;2017-10-03 21:14:44:934
-0.592452;-11.846776;1.115531;-1.827622;-9.625304;0.428599;-0.128726;0.24465;0.288477;-0.8236;-11.9153;3.3432;0.0;-17.3248;12.6907;25.7431;318.8909;78.9642;76.802;0.0;63.63153;;;;NaN;;;;0 / 0;4687;2017-10-03 21:14:44:944
-0.592452;-11.846776;1.115531;-1.832751;-9.623802;0.44025;-0.194949;0.181585;0.402579;-0.5901;-5.6976;0.4039;0.0;-17.3248;12.6907;25.7431;318.8909;78.9642;76.802;0.0;63.63153;;;;NaN;;;;0 / 0;4697;2017-10-03 21:14:44:954
-0.661849;-11.697224;1.023398;-1.832751;-9.623802;0.44025;-0.194949;0.181585;0.402579;-0.5901;-5.6976;0.4039;0.0;-17.2638;12.7121;25.7584;319.1905;78.9185;76.4927;0.0;63.63153;;;;NaN;;;;0 / 0;4707;2017-10-03 21:14:44:964
-0.661849;-11.697224;1.023398;-1.832751;-9.623802;0.44025;-0.194949;0.181585;0.402579;-0.5901;-5.6976;0.4039;0.0;-17.2638;12.7121;25.7584;319.1905;78.9185;76.4927;0.0;63.63153;;;;NaN;;;;0 / 0;4717;2017-10-03 21:14:44:974
-0.661849;-11.697224;1.023398;-1.832751;-9.623802;0.44025;-0.194949;0.181585;0.402579;-0.5901;-5.6976;0.4039;0.0;-17.2638;12.7121;25.7584;319.1905;78.9185;76.4927;0.0;63.63153;;;;NaN;;;;0 / 0;4727;2017-10-03 21:14:44:984
-0.661849;-11.697224;1.023398;-1.832751;-9.623802;0.44025;-0.194949;0.181585;0.402579;-0.5901;-5.6976;0.4039;0.0;-17.2638;12.7121;25.7584;319.1905;78.9185;76.4927;0.0;63.63153;;;;NaN;;;;0 / 0;4737;2017-10-03 21:14:44:994
-0.628341;-11.730718;1.07006;-1.815101;-9.627796;0.425824;-0.21555;0.167675;0.360443;-2.0318;0.7134;-2.3037;0.0;-17.2638;12.7121;25.7584;319.1905;78.9185;76.4927;0.0;63.63153;;;;NaN;;;;0 / 0;4747;2017-10-03 21:14:45:004
-0.628341;-11.730718;1.07006;-1.815101;-9.627796;0.425824;-0.21555;0.167675;0.360443;-2.0318;0.7134;-2.3037;0.0;-17.2638;12.7121;25.7584;319.1905;78.9185;76.4927;0.0;63.63153;;;;NaN;;;;0 / 0;4756;2017-10-03 21:14:45:013
-0.628341;-11.730718;1.07006;-1.815101;-9.627796;0.425824;-0.21555;0.167675;0.360443;-2.0318;0.7134;-2.3037;0.0;-17.2638;12.7121;25.7584;319.1905;78.9185;76.4927;0.0;63.63153;;;;NaN;;;;0 / 0;4766;2017-10-03 21:14:45:023
-0.628341;-11.730718;1.07006;-1.815101;-9.627796;0.425824;-0.21555;0.167675;0.360443;-2.0318;0.7134;-2.3037;0.0;-17.215;12.7151;25.9018;318.8824;79.0406;76.7971;0.0;63.63153;;;;NaN;;;;0 / 0;4776;2017-10-03 21:14:45:033
-0.417785;-11.709188;1.105949;-1.815101;-9.627796;0.425824;-0.21555;0.167675;0.360443;-2.0318;0.7134;-2.3037;0.0;-17.215;12.7151;25.9018;318.8824;79.0406;76.7971;0.0;63.63153;;;;NaN;;;;0 / 0;4786;2017-10-03 21:14:45:043
-0.417785;-11.709188;1.105949;-1.815101;-9.627796;0.425824;-0.21555;0.167675;0.360443;-2.0318;0.7134;-2.3037;0.0;-17.215;12.7151;25.9018;318.8824;79.0406;76.7971;0.0;63.63153;;;;NaN;;;;0 / 0;4796;2017-10-03 21:14:45:053
-0.417785;-11.709188;1.105949;-1.801415;-9.631278;0.404684;-0.158593;0.242146;0.382125;-2.6438;1.4312;-1.8421;0.0;-17.215;12.7151;25.9018;318.8824;79.0406;76.7971;0.0;63.63153;;;;NaN;;;;0 / 0;4808;2017-10-03 21:14:45:065
-0.417785;-11.709188;1.105949;-1.801415;-9.631278;0.404684;-0.158593;0.242146;0.382125;-2.6438;1.4312;-1.8421;0.0;-17.215;12.7151;25.9018;318.8824;79.0406;76.7971;0.0;63.63153;;;;NaN;;;;0 / 0;4816;2017-10-03 21:14:45:073
-0.341201;-11.72234;1.060493;-1.801415;-9.631278;0.404684;-0.158593;0.242146;0.382125;-2.6438;1.4312;-1.8421;0.0;-17.215;12.7151;25.9018;318.8824;79.0406;76.7971;0.0;39.48032;;;;NaN;;;;0 / 0;4827;2017-10-03 21:14:45:084
-0.341201;-11.72234;1.060493;-1.801415;-9.631278;0.404684;-0.158593;0.242146;0.382125;-2.6438;1.4312;-1.8421;0.0;-17.1814;12.7457;25.911;318.352;79.1481;77.3388;0.0;39.48032;;;;NaN;;;;0 / 0;4837;2017-10-03 21:14:45:094
-0.341201;-11.72234;1.060493;-1.801415;-9.631278;0.404684;-0.158593;0.242146;0.382125;-2.6438;1.4312;-1.8421;0.0;-17.1814;12.7457;25.911;318.352;79.1481;77.3388;0.0;39.48032;;;;NaN;;;;0 / 0;4846;2017-10-03 21:14:45:103
-0.341201;-11.72234;1.060493;-1.801415;-9.631278;0.404684;-0.158593;0.242146;0.382125;-2.6438;1.4312;-1.8421;0.0;-17.1814;12.7457;25.911;318.352;79.1481;77.3388;0.0;39.48032;;;;NaN;;;;0 / 0;4856;2017-10-03 21:14:45:113
-0.360351;-11.71996;1.032966;-1.789243;-9.63221;0.435361;0.035272;0.198628;0.351918;-1.6934;-0.8909;-1.224;0.0;-17.1814;12.7457;25.911;318.352;79.1481;77.3388;0.0;39.48032;;;;NaN;;;;0 / 0;4866;2017-10-03 21:14:45:123
-0.360351;-11.71996;1.032966;-1.789243;-9.63221;0.435361;0.035272;0.198628;0.351918;-1.6934;-0.8909;-1.224;0.0;-17.1814;12.7457;25.911;318.352;79.1481;77.3388;0.0;39.48032;;;;NaN;;;;0 / 0;4877;2017-10-03 21:14:45:134
-0.360351;-11.71996;1.032966;-1.789243;-9.63221;0.435361;0.035272;0.198628;0.351918;-1.6934;-0.8909;-1.224;0.0;-17.1814;12.7457;25.911;318.352;79.1481;77.3388;0.0;39.48032;;;;NaN;;;;0 / 0;4887;2017-10-03 21:14:45:144
-0.506317;-11.688848;0.890601;-1.789243;-9.63221;0.435361;0.035272;0.198628;0.351918;-1.6934;-0.8909;-1.224;0.0;-17.1814;12.7457;25.911;318.352;79.1481;77.3388;0.0;39.48032;;;;NaN;;;;0 / 0;4897;2017-10-03 21:14:45:154
-0.506317;-11.688848;0.890601;-1.789243;-9.63221;0.435361;0.035272;0.198628;0.351918;-1.6934;-0.8909;-1.224;0.0;-17.1631;12.7716;25.9918;319.3056;79.177;76.3245;0.0;39.48032;;;;NaN;;;;0 / 0;4906;2017-10-03 21:14:45:163
-0.506317;-11.688848;0.890601;-1.783297;-9.633296;0.435722;-0.083288;0.231521;0.200208;-1.6934;-0.8909;-1.224;0.0;-17.1631;12.7716;25.9918;319.3056;79.177;76.3245;0.0;39.48032;;;;NaN;;;;0 / 0;4916;2017-10-03 21:14:45:173
-0.506317;-11.688848;0.890601;-1.783297;-9.633296;0.435722;-0.083288;0.231521;0.200208;-0.3104;0.1416;-0.8445;0.0;-17.1631;12.7716;25.9918;319.3056;79.177;76.3245;0.0;39.48032;;;;NaN;;;;0 / 0;4927;2017-10-03 21:14:45:184
-0.47879;-11.74268;0.854713;-1.783297;-9.633296;0.435722;-0.083288;0.231521;0.200208;-0.3104;0.1416;-0.8445;0.0;-17.1631;12.7716;25.9918;319.3056;79.177;76.3245;0.0;39.48032;;;;NaN;;;;0 / 0;4937;2017-10-03 21:14:45:194
-0.47879;-11.74268;0.854713;-1.783297;-9.633296;0.435722;-0.083288;0.231521;0.200208;-0.3104;0.1416;-0.8445;0.0;-17.1631;12.7716;25.9918;319.3056;79.177;76.3245;0.0;39.48032;;;;NaN;;;;0 / 0;4947;2017-10-03 21:14:45:204
-0.47879;-11.74268;0.854713;-1.783297;-9.633296;0.435722;-0.083288;0.231521;0.200208;-0.3104;0.1416;-0.8445;0.0;-17.1631;12.7716;25.9918;319.3056;79.177;76.3245;0.0;39.48032;;;;NaN;;;;0 / 0;4956;2017-10-03 21:14:45:213
-0.47879;-11.74268;0.854713;-1.783297;-9.633296;0.435722;-0.083288;0.231521;0.200208;-0.3104;0.1416;-0.8445;0.0;-17.1631;12.7716;25.9918;319.3056;79.177;76.3245;0.0;39.48032;;;;NaN;;;;0 / 0;4966;2017-10-03 21:14:45:223
-0.367523;-11.74268;0.786506;-1.785197;-9.6329;0.436665;-0.08202;0.227799;0.199424;0.1967;2.545;-0.1276;0.0;-17.1158;12.7975;26.0895;319.3674;79.1986;76.2552;0.0;39.48032;;;;NaN;;;;0 / 0;4976;2017-10-03 21:14:45:233
-0.367523;-11.74268;0.786506;-1.785197;-9.6329;0.436665;-0.08202;0.227799;0.199424;0.1967;2.545;-0.1276;0.0;-17.1158;12.7975;26.0895;319.3674;79.1986;76.2552;0.0;39.48032;;;;NaN;;;;0 / 0;4986;2017-10-03 21:14:45:243
-0.367523;-11.74268;0.786506;-1.785197;-9.6329;0.436665;-0.08202;0.227799;0.199424;0.1967;2.545;-0.1276;0.0;-17.1158;12.7975;26.0895;319.3674;79.1986;76.2552;0.0;39.48032;;;;NaN;;;;0 / 0;4996;2017-10-03 21:14:45:253
-0.367523;-11.74268;0.786506;-1.785197;-9.6329;0.436665;-0.08202;0.227799;0.199424;0.1967;2.545;-0.1276;0.0;-17.1158;12.7975;26.0895;319.3674;79.1986;76.2552;0.0;39.48032;;;;NaN;;;;0 / 0;5007;2017-10-03 21:14:45:264
-0.29454;-11.713978;0.887015;-1.785197;-9.6329;0.436665;-0.08202;0.227799;0.199424;0.1967;2.545;-0.1276;0.0;-17.1158;12.7975;26.0895;319.3674;79.1986;76.2552;0.0;39.48032;;;;NaN;;;;0 / 0;5017;2017-10-03 21:14:45:274
-0.29454;-11.713978;0.887015;-1.785197;-9.6329;0.436665;-0.08202;0.227799;0.199424;0.1967;2.545;-0.1276;0.0;-17.1158;12.7975;26.0895;319.3674;79.1986;76.2552;0.0;39.48032;;;;NaN;;;;0 / 0;5027;2017-10-03 21:14:45:284
-0.29454;-11.713978;0.887015;-1.793447;-9.631168;0.44106;-0.038135;0.173323;0.091424;1.0316;4.026;0.5613;0.0;-17.1158;12.7975;26.0895;319.3674;79.1986;76.2552;0.0;39.48032;;;;NaN;;;;0 / 0;5036;2017-10-03 21:14:45:293
-0.29454;-11.713978;0.887015;-1.793447;-9.631168;0.44106;-0.038135;0.173323;0.091424;1.0316;4.026;0.5613;0.0;-17.1783;12.8281;26.0895;319.4443;79.1447;76.1835;0.0;39.48032;;;;NaN;;;;0 / 0;5046;2017-10-03 21:14:45:303
-0.229934;-11.760624;0.785316;-1.793447;-9.631168;0.44106;-0.038135;0.173323;0.091424;1.0316;4.026;0.5613;0.0;-17.1783;12.8281;26.0895;319.4443;79.1447;76.1835;0.0;39.48032;;;;NaN;;;;0 / 0;5056;2017-10-03 21:14:45:313
-0.229934;-11.760624;0.785316;-1.793447;-9.631168;0.44106;-0.038135;0.173323;0.091424;1.0316;4.026;0.5613;0.0;-17.1783;12.8281;26.0895;319.4443;79.1447;76.1835;0.0;39.48032;;;;NaN;;;;0 / 0;5066;2017-10-03 21:14:45:323
-0.229934;-11.760624;0.785316;-1.793447;-9.631168;0.44106;-0.038135;0.173323;0.091424;1.0316;4.026;0.5613;0.0;-17.1783;12.8281;26.0895;319.4443;79.1447;76.1835;0.0;39.48032;;;;NaN;;;;0 / 0;5077;2017-10-03 21:14:45:334
-0.300536;-11.794132;0.80326;-1.798239;-9.629634;0.45482;-0.038135;0.173323;0.091424;1.0316;4.026;0.5613;0.0;-17.1783;12.8281;26.0895;319.4443;79.1447;76.1835;0.0;39.48032;;;;NaN;;;;0 / 0;5086;2017-10-03 21:14:45:343
-0.300536;-11.794132;0.80326;-1.798239;-9.629634;0.45482;0.121742;0.185606;0.095331;1.3525;0.5211;0.6312;0.0;-17.1783;12.8281;26.0895;319.4443;79.1447;76.1835;0.0;39.48032;;;;NaN;;;;0 / 0;5096;2017-10-03 21:14:45:353
-0.300536;-11.794132;0.80326;-1.798239;-9.629634;0.45482;0.121742;0.185606;0.095331;1.3525;0.5211;0.6312;0.0;-17.2546;12.8677;25.9918;319.8088;79.0972;75.8061;0.0;39.48032;;;;NaN;;;;0 / 0;5106;2017-10-03 21:14:45:363
-0.300536;-11.794132;0.80326;-1.798239;-9.629634;0.45482;0.121742;0.185606;0.095331;1.3525;0.5211;0.6312;0.0;-17.2546;12.8677;25.9918;319.8088;79.0972;75.8061;0.0;39.48032;;;;NaN;;;;0 / 0;5117;2017-10-03 21:14:45:374
-0.262237;-11.818058;0.798469;-1.798239;-9.629634;0.45482;0.121742;0.185606;0.095331;1.3525;0.5211;0.6312;0.0;-17.2546;12.8677;25.9918;319.8088;79.0972;75.8061;0.0;35.51566;;;;NaN;;;;0 / 0;5127;2017-10-03 21:14:45:384
-0.262237;-11.818058;0.798469;-1.798239;-9.629634;0.45482;0.121742;0.185606;0.095331;1.3525;0.5211;0.6312;0.0;-17.2546;12.8677;25.9918;319.8088;79.0972;75.8061;0.0;35.51566;;;;NaN;;;;0 / 0;5137;2017-10-03 21:14:45:394
-0.262237;-11.818058;0.798469;-1.796122;-9.629606;0.463702;0.120728;0.11494;0.055443;0.786;-0.1845;-0.0402;0.0;-17.2546;12.8677;25.9918;319.8088;79.0972;75.8061;0.0;35.51566;;;;NaN;;;;0 / 0;5147;2017-10-03 21:14:45:404
-0.262237;-11.818058;0.798469;-1.796122;-9.629606;0.463702;0.120728;0.11494;0.055443;0.786;-0.1845;-0.0402;0.0;-17.2546;12.8677;25.9918;319.8088;79.0972;75.8061;0.0;35.51566;;;;NaN;;;;0 / 0;5156;2017-10-03 21:14:45:413
-0.295745;-11.717564;0.834373;-1.796122;-9.629606;0.463702;0.120728;0.11494;0.055443;0.786;-0.1845;-0.0402;0.0;-17.2546;12.8677;25.9918;319.8088;79.0972;75.8061;0.0;35.51566;;;;NaN;;;;0 / 0;5166;2017-10-03 21:14:45:423
-0.295745;-11.717564;0.834373;-1.796122;-9.629606;0.463702;0.120728;0.11494;0.055443;0.786;-0.1845;-0.0402;0.0;-17.2165;12.8448;25.9674;320.0753;79.0963;75.5241;0.0;35.51566;;;;NaN;;;;0 / 0;5178;2017-10-03 21:14:45:435
-0.295745;-11.717564;0.834373;-1.796122;-9.629606;0.463702;0.120728;0.11494;0.055443;0.786;-0.1845;-0.0402;0.0;-17.2165;12.8448;25.9674;320.0753;79.0963;75.5241;0.0;35.51566;;;;NaN;;;;0 / 0;5186;2017-10-03 21:14:45:443
-0.295745;-11.717564;0.834373;-1.796122;-9.629606;0.463702;0.120728;0.11494;0.055443;0.786;-0.1845;-0.0402;0.0;-17.2165;12.8448;25.9674;320.0753;79.0963;75.5241;0.0;35.51566;;;;NaN;;;;0 / 0;5196;2017-10-03 21:14:45:453
-0.2108;-11.751058;0.897773;-1.788496;-9.630102;0.482483;0.10316;0.146526;0.071575;0.4887;-2.3081;0.2929;0.0;-17.2165;12.8448;25.9674;320.0753;79.0963;75.5241;0.0;35.51566;;;;NaN;;;;0 / 0;5206;2017-10-03 21:14:45:463
-0.2108;-11.751058;0.897773;-1.788496;-9.630102;0.482483;0.10316;0.146526;0.071575;0.4887;-2.3081;0.2929;0.0;-17.2165;12.8448;25.9674;320.0753;79.0963;75.5241;0.0;35.51566;;;;NaN;;;;0 / 0;5216;2017-10-03 21:14:45:473
-0.2108;-11.751058;0.897773;-1.788496;-9.630102;0.482483;0.10316;0.146526;0.071575;0.4887;-2.3081;0.2929;0.0;-17.2165;12.8448;25.9674;320.0753;79.0963;75.5241;0.0;35.51566;;;;NaN;;;;0 / 0;5226;2017-10-03 21:14:45:483
-0.1091;-11.772602;0.902564;-1.788496;-9.630102;0.482483;0.10316;0.146526;0.071575;0.4887;-2.3081;0.2929;0.0;-17.2165;12.8448;25.9674;320.0753;79.0963;75.5241;0.0;35.51566;;;;NaN;;;;0 / 0;5237;2017-10-03 21:14:45:494
-0.1091;-11.772602;0.902564;-1.788496;-9.630102;0.482483;0.10316;0.146526;0.071575;0.4887;-2.3081;0.2929;0.0;-17.2409;12.8693;25.943;320.6597;79.1117;74.9027;0.0;35.51566;;;;NaN;;;;0 / 0;5247;2017-10-03 21:14:45:504
-0.1091;-11.772602;0.902564;-1.772704;-9.631326;0.515235;0.193065;0.103672;0.109941;1.008;-4.7175;0.8288;0.0;-17.2409;12.8693;25.943;320.6597;79.1117;74.9027;0.0;35.51566;;;;NaN;;;;0 / 0;5257;2017-10-03 21:14:45:514
-0.1091;-11.772602;0.902564;-1.772704;-9.631326;0.515235;0.193065;0.103672;0.109941;1.008;-4.7175;0.8288;0.0;-17.2409;12.8693;25.943;320.6597;79.1117;74.9027;0.0;35.51566;;;;NaN;;;;0 / 0;5267;2017-10-03 21:14:45:524
-0.227554;-11.797718;0.932471;-1.772704;-9.631326;0.515235;0.193065;0.103672;0.109941;1.008;-4.7175;0.8288;0.0;-17.2409;12.8693;25.943;320.6597;79.1117;74.9027;0.0;35.51566;;;;NaN;;;;0 / 0;5277;2017-10-03 21:14:45:534
-0.227554;-11.797718;0.932471;-1.772704;-9.631326;0.515235;0.193065;0.103672;0.109941;1.008;-4.7175;0.8288;0.0;-17.2409;12.8693;25.943;320.6597;79.1117;74.9027;0.0;35.51566;;;;NaN;;;;0 / 0;5287;2017-10-03 21:14:45:544
-0.227554;-11.797718;0.932471;-1.772704;-9.631326;0.515235;0.193065;0.103672;0.109941;1.008;-4.7175;0.8288;0.0;-17.2409;12.8693;25.943;320.6597;79.1117;74.9027;0.0;35.51566;;;;NaN;;;;0 / 0;5296;2017-10-03 21:14:45:553
-0.227554;-11.797718;0.932471;-1.772704;-9.631326;0.515235;0.193065;0.103672;0.109941;1.008;-4.7175;0.8288;0.0;-17.2409;12.8693;25.943;320.6597;79.1117;74.9027;0.0;35.51566;;;;NaN;;;;0 / 0;5306;2017-10-03 21:14:45:563
-0.310104;-11.767812;0.922904;-1.766586;-9.630466;0.551067;0.100283;0.079073;0.09381;0.4826;-10.6442;1.0561;0.0;-17.2729;12.8784;25.9186;321.7011;79.1496;73.7935;0.0;35.51566;;;;NaN;;;;0 / 0;5317;2017-10-03 21:14:45:574
-0.310104;-11.767812;0.922904;-1.766586;-9.630466;0.551067;0.100283;0.079073;0.09381;0.4826;-10.6442;1.0561;0.0;-17.2729;12.8784;25.9186;321.7011;79.1496;73.7935;0.0;35.51566;;;;NaN;;;;0 / 0;5327;2017-10-03 21:14:45:584
-0.310104;-11.767812;0.922904;-1.766586;-9.630466;0.551067;0.100283;0.079073;0.09381;0.4826;-10.6442;1.0561;0.0;-17.2729;12.8784;25.9186;321.7011;79.1496;73.7935;0.0;35.51566;;;;NaN;;;;0 / 0;5336;2017-10-03 21:14:45:593
-0.310104;-11.767812;0.922904;-1.766586;-9.630466;0.551067;0.100283;0.079073;0.09381;0.4826;-10.6442;1.0561;0.0;-17.2729;12.8784;25.9186;321.7011;79.1496;73.7935;0.0;35.51566;;;;NaN;;;;0 / 0;5346;2017-10-03 21:14:45:603
-0.393844;-11.716358;1.101173;-1.766586;-9.630466;0.551067;0.100283;0.079073;0.09381;0.4826;-10.6442;1.0561;0.0;-17.2729;12.8784;25.9186;321.7011;79.1496;73.7935;0.0;35.51566;;;;NaN;;;;0 / 0;5356;2017-10-03 21:14:45:613
-0.393844;-11.716358;1.101173;-1.766586;-9.630466;0.551067;0.100283;0.079073;0.09381;0.4826;-10.6442;1.0561;0.0;-17.2729;12.8784;25.9186;321.7011;79.1496;73.7935;0.0;35.51566;;;;NaN;;;;0 / 0;5366;2017-10-03 21:14:45:623
-0.393844;-11.716358;1.101173;-1.758318;-9.630388;0.578193;0.090331;0.069153;0.067647;-0.3567;-12.196;0.8524;0.0;-17.247;12.854;25.8942;323.5903;79.1205;71.7974;0.0;35.51566;;;;NaN;;;;0 / 0;5378;2017-10-03 21:14:45:635
-0.393844;-11.716358;1.101173;-1.758318;-9.630388;0.578193;0.090331;0.069153;0.067647;-0.3567;-12.196;0.8524;0.0;-17.247;12.854;25.8942;323.5903;79.1205;71.7974;0.0;35.51566;;;;NaN;;;;0 / 0;5386;2017-10-03 21:14:45:643
-0.637924;-11.669698;1.196876;-1.758318;-9.630388;0.578193;0.090331;0.069153;0.067647;-0.3567;-12.196;0.8524;0.0;-17.247;12.854;25.8942;323.5903;79.1205;71.7974;0.0;35.51566;;;;NaN;;;;0 / 0;5396;2017-10-03 21:14:45:653
-0.637924;-11.669698;1.196876;-1.758318;-9.630388;0.578193;0.090331;0.069153;0.067647;-0.3567;-12.196;0.8524;0.0;-17.247;12.854;25.8942;323.5903;79.1205;71.7974;0.0;35.51566;;;;NaN;;;;0 / 0;5407;2017-10-03 21:14:45:664
-0.637924;-11.669698;1.196876;-1.758318;-9.630388;0.578193;0.090331;0.069153;0.067647;-0.3567;-12.196;0.8524;0.0;-17.247;12.854;25.8942;323.5903;79.1205;71.7974;0.0;35.51566;;;;NaN;;;;0 / 0;5417;2017-10-03 21:14:45:674
-0.673812;-11.727132;1.042548;-1.761142;-9.628046;0.607863;-0.111536;0.150992;0.21749;0.6697;-11.1521;0.7414;0.0;-17.247;12.854;25.8942;323.5903;79.1205;71.7974;0.0;35.7368;;;;NaN;;;;0 / 0;5427;2017-10-03 21:14:45:684
-0.673812;-11.727132;1.042548;-1.761142;-9.628046;0.607863;-0.111536;0.150992;0.21749;0.6697;-11.1521;0.7414;0.0;-17.247;12.854;25.8942;323.5903;79.1205;71.7974;0.0;35.7368;;;;NaN;;;;0 / 0;5436;2017-10-03 21:14:45:693
